File: dev_example/Ni_10x10x10/cpp/o.S_XRD.dat
bin                 q                   S
0                   0.025000            6366.73
1                   0.075000            4880.58
2                   0.125000            2544.26
3                   0.175000            311.178
4                   0.225000            -1012.75
5                   0.275000            -1133.47
6                   0.325000            -349.019
7                   0.375000            675.648
8                   0.425000            1295.04
9                   0.475000            1210.05
10                  0.525000            566.447
11                  0.575000            -201.946
12                  0.625000            -667.132
13                  0.675000            -654.334
14                  0.725000            -305.753
15                  0.775000            54.7372
16                  0.825000            151.783
17                  0.875000            -67.2552
18                  0.925000            -417.05
19                  0.975000            -614.406
20                  1.025000            -474.007
21                  1.075000            -32.0532
22                  1.125000            477.391
23                  1.175000            772.457
24                  1.225000            701.105
25                  1.275000            334.318
26                  1.325000            -80.67
27                  1.375000            -274.471
28                  1.425000            -119.696
29                  1.475000            294.879
30                  1.525000            722.134
31                  1.575000            907.213
32                  1.625000            737.435
33                  1.675000            302.201
34                  1.725000            -168.704
35                  1.775000            -445.846
36                  1.825000            -431.966
37                  1.875000            -206.629
38                  1.925000            38.0219
39                  1.975000            124.886
40                  2.025000            0.818987
41                  2.075000            -239.772
42                  2.125000            -427.041
43                  2.175000            -433.063
44                  2.225000            -256.664
45                  2.275000            -20.8887
46                  2.325000            113.74
47                  2.375000            61.2781
48                  2.425000            -128.535
49                  2.475000            -303.488
50                  2.525000            -316.919
51                  2.575000            -138.586
52                  2.625000            110.429
53                  2.675000            231.573
54                  2.725000            92.2889
55                  2.775000            -252.347
56                  2.825000            -547.938
57                  2.875000            -465.295
58                  2.925000            198.345
59                  2.975000            1358.14
60                  3.025000            2627.04
61                  3.075000            3476.85
62                  3.125000            3501.71
63                  3.175000            2643.28
64                  3.225000            1247.67
65                  3.275000            -87.9805
66                  3.325000            -805.543
67                  3.375000            -659.378
68                  3.425000            173.239
69                  3.475000            1202.45
70                  3.525000            1892.45
71                  3.575000            1935.42
72                  3.625000            1384.66
73                  3.675000            583.867
74                  3.725000            -53.0266
75                  3.775000            -275.958
76                  3.825000            -112.729
77                  3.875000            191.322
78                  3.925000            355.286
79                  3.975000            244.857
80                  4.025000            -57.5054
81                  4.075000            -329.04
82                  4.125000            -369.803
83                  4.175000            -140.794
84                  4.225000            212.581
85                  4.275000            462.557
86                  4.325000            454.485
87                  4.375000            210.156
88                  4.425000            -89.8897
89                  4.475000            -232.322
90                  4.525000            -120.024
91                  4.575000            156.937
92                  4.625000            378.315
93                  4.675000            343.883
94                  4.725000            18.9635
95                  4.775000            -422.577
96                  4.825000            -691.818
97                  4.875000            -561.264
98                  4.925000            -15.6116
99                  4.975000            719.333
100                 5.025000            1292.35
101                 5.075000            1421.33
102                 5.125000            1051.9
103                 5.175000            386.263
104                 5.225000            -233.789
105                 5.275000            -519.532
106                 5.325000            -390.208
107                 5.375000            -2.283208
108                 5.425000            358.255
109                 5.475000            451.567
110                 5.525000            222.32
111                 5.575000            -177.143
112                 5.625000            -485.354
113                 5.675000            -487.611
114                 5.725000            -136.218
115                 5.775000            430.477
116                 5.825000            972.616
117                 5.875000            1280.23
118                 5.925000            1274.05
119                 5.975000            1024.27
120                 6.025000            688.366
121                 6.075000            414.661
122                 6.125000            270.68
123                 6.175000            231.708
124                 6.225000            223.912
125                 6.275000            185.219
126                 6.325000            103.269
127                 6.375000            11.5234
128                 6.425000            -45.3388
129                 6.475000            -47.6013
130                 6.525000            -12.9943
131                 6.575000            19.7251
132                 6.625000            20.5513
133                 6.675000            -11.5164
134                 6.725000            -51.182
135                 6.775000            -68.1386
136                 6.825000            -49.6606
137                 6.875000            -7.871582
138                 6.925000            32.3639
139                 6.975000            54.3459
140                 7.025000            62.6209
141                 7.075000            78.0909
142                 7.125000            118.797
143                 7.175000            180.971
144                 7.225000            235.214
145                 7.275000            242.176
146                 7.325000            178.299
147                 7.375000            54.7186
148                 7.425000            -83.6728
149                 7.475000            -179.36
150                 7.525000            -191.137
151                 7.575000            -113.804
152                 7.625000            22.148
153                 7.675000            169.044
154                 7.725000            286.321
155                 7.775000            356.216
156                 7.825000            383.543
157                 7.875000            383.106
158                 7.925000            365.488
159                 7.975000            331.184
160                 8.025000            275.646
161                 8.075000            199.475
162                 8.125000            114.597
163                 8.175000            40.8212
164                 8.225000            -5.141126
165                 8.275000            -20.1609
166                 8.325000            -16.5412
167                 8.375000            -13.0558
168                 8.425000            -20.7699
169                 8.475000            -33.4156
170                 8.525000            -29.6667
171                 8.575000            12.9444
172                 8.625000            100.599
173                 8.675000            213.4
174                 8.725000            310.44
175                 8.775000            348.358
176                 8.825000            303.919
177                 8.875000            188.283
178                 8.925000            44.7801
179                 8.975000            -69.3615
180                 9.025000            -108.491
181                 9.075000            -58.7932
182                 9.125000            56.2487
183                 9.175000            187.266
184                 9.225000            281.257
185                 9.275000            303.971
186                 9.325000            252.394
187                 9.375000            152.626
188                 9.425000            45.4494
189                 9.475000            -32.762
190                 9.525000            -64.7241
191                 9.575000            -56.3358
192                 9.625000            -29.4696
193                 9.675000            -8.148862
194                 9.725000            -5.591086
195                 9.775000            -18.5878
196                 9.825000            -31.5299
197                 9.875000            -27.2404
198                 9.925000            1.709948
199                 9.975000            47.5684
200                 10.025           90.8231
201                 10.075           110.514
202                 10.125           95.6899
203                 10.175           51.7343
204                 10.225           -1.743944
205                 10.275           -40.0872
206                 10.325           -44.7534
207                 10.375           -10.7364
208                 10.425           52.9196
209                 10.475           128.625
210                 10.525           197.881
211                 10.575           246.865
212                 10.625           268.072
213                 10.675           259.076
214                 10.725           221.087
215                 10.775           159.188
216                 10.825           83.7794
217                 10.875           10.8481
218                 10.925           -41.1994
219                 10.975           -58.0722
220                 11.025           -36.5471
221                 11.075           12.4054
222                 11.125           67.0511
223                 11.175           103.998
224                 11.225           108.628
225                 11.275           81.43
226                 11.325           36.9846
227                 11.375           -3.630335
228                 11.425           -22.7106
229                 11.475           -12.9773
230                 11.525           21.1546
231                 11.575           67.5172
232                 11.625           112.167
233                 11.675           144.025
234                 11.725           156.694
235                 11.775           148.26
236                 11.825           120.83
237                 11.875           80.6414
238                 11.925           37.9093
239                 11.975           4.822246
240                 12.025           -8.861864
241                 12.075           -0.911901
242                 12.125           20.848
243                 12.175           41.1619
244                 12.225           44.7771
245                 12.275           24.9764
246                 12.325           -11.885
247                 12.375           -49.0297
248                 12.425           -68.0183
249                 12.475           -58.6179
250                 12.525           -23.8907
251                 12.575           22.4565
252                 12.625           64.4959
253                 12.675           92.6592
254                 12.725           106.999
255                 12.775           113.527
256                 12.825           116.97
257                 12.875           115.788
258                 12.925           103.544
259                 12.975           75.7891
260                 13.025           37.1136
261                 13.075           2.242363
262                 13.125           -11.0761
263                 13.175           6.394294
264                 13.225           47.1645
265                 13.275           88.678
266                 13.325           105.35
267                 13.375           84.3916
268                 13.425           35.4649
269                 13.475           -12.7853
270                 13.525           -28.4014
271                 13.575           4.788467
272                 13.625           76.1597
273                 13.675           152.48
274                 13.725           195.4
275                 13.775           182.288
276                 13.825           118.365
277                 13.875           33.3157
278                 13.925           -35.2352
279                 13.975           -61.4825
280                 14.025           -43.2338
281                 14.075           0.077178
282                 14.125           40.5689
283                 14.175           57.5975
284                 14.225           46.95
285                 14.275           19.6064
286                 14.325           -7.193173
287                 14.375           -19.9017
288                 14.425           -13.8528
289                 14.475           7.751982
290                 14.525           38.1645
291                 14.575           70.5447
292                 14.625           98.5267
293                 14.675           115.256
294                 14.725           113.865
295                 14.775           90.8522
296                 14.825           50.4876
297                 14.875           6.176373
298                 14.925           -24.1231
299                 14.975           -27.2177
300                 15.025           -3.323287
301                 15.075           32.2297
302                 15.125           56.7647
303                 15.175           53.7891
304                 15.225           24.033
305                 15.275           -13.6091
306                 15.325           -32.8779
307                 15.375           -16.6486
308                 15.425           31.194
309                 15.475           86.5449
310                 15.525           118.795
311                 15.575           109.347
312                 15.625           63.3394
313                 15.675           6.922417
314                 15.725           -28.494
315                 15.775           -25.2489
316                 15.825           10.2826
317                 15.875           52.5989
318                 15.925           73.9287
319                 15.975           62.1446
320                 16.025           28.246
321                 16.075           -1.248167
322                 16.125           -1.882524
323                 16.175           32.6416
324                 16.225           86.1661
325                 16.275           130.08
326                 16.325           140.907
327                 16.375           114.097
328                 16.425           65.5192
329                 16.475           20.3713
330                 16.525           -2.663487
331                 16.575           -1.560671
332                 16.625           10.696
333                 16.675           17.4885
334                 16.725           11.1918
335                 16.775           -1.802285
336                 16.825           -6.857336
337                 16.875           6.829430
338                 16.925           36.7119
339                 16.975           66.9497
340                 17.025           78.3021
341                 17.075           61.2031
342                 17.125           23.0073
343                 17.175           -15.7755
344                 17.225           -34.0406
345                 17.275           -23.2704
346                 17.325           7.328465
347                 17.375           37.1136
348                 17.425           47.5733
349                 17.475           34.2723
350                 17.525           9.411860
351                 17.575           -6.556246
352                 17.625           1.323775
353                 17.675           32.3854
354                 17.725           70.3377
355                 17.775           93.2741
356                 17.825           87.1974
357                 17.875           54.5099
358                 17.925           12.3507
359                 17.975           -17.8192
360                 18.025           -22.6359
361                 18.075           -3.654064
362                 18.125           25.1137
363                 18.175           46.6902
364                 18.225           51.3127
365                 18.275           41.1129
366                 18.325           27.0825
367                 18.375           21.0618
368                 18.425           28.2362
369                 18.475           44.6521
370                 18.525           60.6008
371                 18.575           66.9773
372                 18.625           60.3054
373                 18.675           43.6369
374                 18.725           23.6035
375                 18.775           6.299315
376                 18.825           -5.129172
377                 18.875           -10.1177
378                 18.925           -8.752550
379                 18.975           -0.494016
380                 19.025           15.1062
381                 19.075           36.3185
382                 19.125           57.8415
383                 19.175           71.9149
384                 19.225           71.9491
385                 19.275           56.6268
386                 19.325           31.679
387                 19.375           7.737231
388                 19.425           -4.896607
389                 19.475           -1.647959
390                 19.525           13.97
391                 19.575           32.4934
392                 19.625           43.8999
393                 19.675           43.0602
394                 19.725           32.0713
395                 19.775           18.2454
396                 19.825           9.176934
397                 19.875           8.011306
398                 19.925           11.7954
399                 19.975           13.8151