File: dev_example/NaCl_20x20x20/pyxrd/o.S_XRD.dat
bin                 q                   S
0                   0.005000            5389.86
2                   0.025000            5055.85
4                   0.045000            4323.86
6                   0.065000            3299.43
8                   0.085000            2126.89
10                  0.105000            964.952
12                  0.125000            -39.4536
14                  0.145000            -774.46
16                  0.165000            -1179.49
18                  0.185000            -1251.76
20                  0.205000            -1042.31
22                  0.225000            -642.689
24                  0.245000            -165.351
26                  0.265000            278.433
28                  0.285000            598.718
30                  0.305000            741.501
32                  0.325000            695.358
34                  0.345000            489.362
36                  0.365000            183.295
38                  0.385000            -147.385
40                  0.405000            -428.473
42                  0.425000            -602.326
44                  0.445000            -638.58
46                  0.465000            -538.416
48                  0.485000            -331.972
50                  0.505000            -69.9003
52                  0.525000            188.774
54                  0.545000            389.709
56                  0.565000            494.427
58                  0.585000            487.395
60                  0.605000            377.784
62                  0.625000            195.888
64                  0.645000            -14.71
66                  0.665000            -207.259
68                  0.685000            -341.978
70                  0.705000            -394.025
72                  0.725000            -357.757
74                  0.745000            -246.592
76                  0.765000            -88.8013
78                  0.785000            79.6004
80                  0.805000            223.141
82                  0.825000            314.487
84                  0.845000            339.735
86                  0.865000            300.417
88                  0.885000            211.971
90                  0.905000            99.2657
92                  0.925000            -9.654942
94                  0.945000            -90.106
96                  0.965000            -126.107
98                  0.985000            -113.421
100                 1.005000            -59.7452
102                 1.025000            17.821
104                 1.045000            97.2977
106                 1.065000            157.215
108                 1.085000            181.603
110                 1.105000            163.467
112                 1.125000            106.052
114                 1.145000            21.7033
116                 1.165000            -71.299
118                 1.185000            -153.125
120                 1.205000            -206.958
122                 1.225000            -222.694
124                 1.245000            -198.989
126                 1.265000            -143.252
128                 1.285000            -69.6765
130                 1.305000            4.183809
132                 1.325000            61.4624
134                 1.345000            89.7341
136                 1.365000            83.6486
138                 1.385000            45.8988
140                 1.405000            -13.6313
142                 1.425000            -80.2897
144                 1.445000            -138.066
146                 1.465000            -173.209
148                 1.485000            -177.254
150                 1.505000            -148.821
152                 1.525000            -93.829
154                 1.545000            -24.1254
156                 1.565000            45.1419
158                 1.585000            98.8131
160                 1.605000            124.964
162                 1.625000            117.439
164                 1.645000            77.1557
166                 1.665000            11.9605
168                 1.685000            -64.9215
170                 1.705000            -137.487
172                 1.725000            -190.078
174                 1.745000            -210.411
176                 1.765000            -191.943
178                 1.785000            -135.135
180                 1.805000            -47.4317
182                 1.825000            58.025
184                 1.845000            164.674
186                 1.865000            255.384
188                 1.885000            315.384
190                 1.905000            334.764
192                 1.925000            310.181
194                 1.945000            245.498
196                 1.965000            151.303
198                 1.985000            43.3924
200                 2.005000            -59.5273
202                 2.025000            -138.574
204                 2.045000            -177.477
206                 2.065000            -165.022
208                 2.085000            -96.8341
210                 2.105000            23.7672
212                 2.125000            185.938
214                 2.145000            372.521
216                 2.165000            562.157
218                 2.185000            732.031
220                 2.205000            860.91
222                 2.225000            932.064
224                 2.245000            935.654
226                 2.265000            870.225
228                 2.285000            743.06
230                 2.305000            569.277
232                 2.325000            369.776
234                 2.345000            168.29
236                 2.365000            -12.025
238                 2.385000            -151.944
240                 2.405000            -238.926
242                 2.425000            -268.811
244                 2.445000            -246.164
246                 2.465000            -183.18
248                 2.485000            -97.3324
250                 2.505000            -8.172068
252                 2.525000            66.1787
254                 2.545000            112.189
256                 2.565000            123.171
258                 2.585000            100.206
260                 2.605000            51.5725
262                 2.625000            -9.207960
264                 2.645000            -66.3253
266                 2.665000            -105.056
268                 2.685000            -114.893
270                 2.705000            -91.8018
272                 2.725000            -39.1506
274                 2.745000            32.8862
276                 2.765000            109.345
278                 2.785000            173.519
280                 2.805000            210.431
282                 2.825000            210.036
284                 2.845000            169.515
286                 2.865000            94.1753
288                 2.885000            -3.237138
290                 2.905000            -104.699
292                 2.925000            -190.15
294                 2.945000            -241.185
296                 2.965000            -244.506
298                 2.985000            -194.463
300                 3.005000            -94.2148
302                 3.025000            44.7112
304                 3.045000            204.349
306                 3.065000            363.348
308                 3.085000            500.559
310                 3.105000            598.482
312                 3.125000            645.963
314                 3.145000            639.669
316                 3.165000            584.14
318                 3.185000            490.496
320                 3.205000            374.094
322                 3.225000            251.667
324                 3.245000            138.481
326                 3.265000            46.0603
328                 3.285000            -19.1781
330                 3.305000            -56.1861
332                 3.325000            -68.5324
334                 3.345000            -62.8925
336                 3.365000            -47.1769
338                 3.385000            -28.7257
340                 3.405000            -12.9415
342                 3.425000            -2.595275
344                 3.445000            2.132359
346                 3.465000            2.985551
348                 3.485000            2.591415
350                 3.505000            3.354125
352                 3.525000            6.586116
354                 3.545000            12.0932
356                 3.565000            18.298
358                 3.585000            22.8401
360                 3.605000            23.4638
362                 3.625000            18.9333
364                 3.645000            9.705359
366                 3.665000            -1.847369
368                 3.685000            -11.7537
370                 3.705000            -15.2575
372                 3.725000            -7.950833
374                 3.745000            13.0363
376                 3.765000            48.082
378                 3.785000            94.6026
380                 3.805000            147.212
382                 3.825000            198.518
384                 3.845000            240.418
386                 3.865000            265.631
388                 3.885000            269.158
390                 3.905000            249.345
392                 3.925000            208.327
394                 3.945000            151.728
396                 3.965000            87.6809
398                 3.985000            25.3521
400                 4.005000            -26.7376
402                 4.025000            -62.2448
404                 4.045000            -78.0848
406                 4.065000            -74.8486
408                 4.085000            -56.4809
410                 4.105000            -29.3016
412                 4.125000            -0.589254
414                 4.145000            22.968
416                 4.165000            36.6273
418                 4.185000            38.4723
420                 4.205000            29.6497
422                 4.225000            13.9316
424                 4.245000            -3.280257
426                 4.265000            -16.2753
428                 4.285000            -20.3818
430                 4.305000            -13.0446
432                 4.325000            5.597685
434                 4.345000            32.7513
436                 4.365000            63.6009
438                 4.385000            92.3844
440                 4.405000            113.662
442                 4.425000            123.496
444                 4.445000            120.275
446                 4.465000            105.018
448                 4.485000            81.0795
450                 4.505000            53.3527
452                 4.525000            27.1436
454                 4.545000            6.978813
456                 4.565000            -4.382173
458                 4.585000            -6.508835
460                 4.605000            -1.309927
462                 4.625000            7.507871
464                 4.645000            15.4092
466                 4.665000            18.2064
468                 4.685000            13.1754
470                 4.705000            -0.146072
472                 4.725000            -19.6662
474                 4.745000            -41.0305
476                 4.765000            -58.4489
478                 4.785000            -65.8905
480                 4.805000            -58.3989
482                 4.825000            -33.249
484                 4.845000            9.301458
486                 4.865000            65.8311
488                 4.885000            130.191
490                 4.905000            194.482
492                 4.925000            250.372
494                 4.945000            290.516
496                 4.965000            309.78
498                 4.985000            306.053
500                 5.005000            280.49
502                 5.025000            237.175
504                 5.045000            182.277
506                 5.065000            122.892
508                 5.085000            65.8196
510                 5.105000            16.5122
512                 5.125000            -21.6114
514                 5.145000            -47.374
516                 5.165000            -61.575
518                 5.185000            -66.3541
520                 5.205000            -64.3613
522                 5.225000            -57.9448
524                 5.245000            -48.5499
526                 5.265000            -36.4647
528                 5.285000            -20.9577
530                 5.305000            -0.754635
532                 5.325000            25.2781
534                 5.345000            57.4319
536                 5.365000            94.6266
538                 5.385000            134.206
540                 5.405000            172.136
542                 5.425000            203.591
544                 5.445000            223.809
546                 5.465000            229.052
548                 5.485000            217.446
550                 5.505000            189.519
552                 5.525000            148.292
554                 5.545000            98.9013
556                 5.565000            47.7788
558                 5.585000            1.572047
560                 5.605000            -34.0049
562                 5.625000            -55.1555
564                 5.645000            -60.6233
566                 5.665000            -51.8296
568                 5.685000            -32.5018
570                 5.705000            -7.869522
572                 5.725000            16.4024
574                 5.745000            35.3273
576                 5.765000            45.5289
578                 5.785000            45.809
580                 5.805000            37.2427
582                 5.825000            22.7966
584                 5.845000            6.562665
586                 5.865000            -7.219195
588                 5.885000            -15.1356
590                 5.905000            -15.3618
592                 5.925000            -8.050747
594                 5.945000            4.728830
596                 5.965000            19.4865
598                 5.985000            32.1236
600                 6.005000            38.8863
602                 6.025000            37.2511
604                 6.045000            26.5491
606                 6.065000            8.194015
608                 6.085000            -14.5374
610                 6.105000            -37.1287
612                 6.125000            -54.7225
614                 6.145000            -63.1106
616                 6.165000            -59.6104
618                 6.185000            -43.6513
620                 6.205000            -16.9509
622                 6.225000            16.7516
624                 6.245000            52.3502
626                 6.265000            84.2846
628                 6.285000            107.531
630                 6.305000            118.482
632                 6.325000            115.552
634                 6.345000            99.4103
636                 6.365000            72.8018
638                 6.385000            40.0238
640                 6.405000            6.158821
642                 6.425000            -23.7765
644                 6.445000            -45.6101
646                 6.465000            -56.5901
648                 6.485000            -55.674
650                 6.505000            -43.5129
652                 6.525000            -22.1691
654                 6.545000            5.346912
656                 6.565000            35.6121
658                 6.585000            65.2935
660                 6.605000            91.536
662                 6.625000            112.192
664                 6.645000            125.894
666                 6.665000            131.999
668                 6.685000            130.475
670                 6.705000            121.768
672                 6.725000            106.713
674                 6.745000            86.4975
676                 6.765000            62.664
678                 6.785000            37.1222
680                 6.805000            12.1197
682                 6.825000            -9.869601
684                 6.845000            -26.3605
686                 6.865000            -35.1657
688                 6.885000            -34.7555
690                 6.905000            -24.5994
692                 6.925000            -5.408163
694                 6.945000            20.7968
696                 6.965000            50.8318
698                 6.985000            80.7235
700                 7.005000            106.262
702                 7.025000            123.653
704                 7.045000            130.148
706                 7.065000            124.546
708                 7.085000            107.456
710                 7.105000            81.2621
712                 7.125000            49.7833
714                 7.145000            17.6829
716                 7.165000            -10.281
718                 7.185000            -30.027
720                 7.205000            -38.8103
722                 7.225000            -35.6532
724                 7.245000            -21.4735
726                 7.265000            1.108906
728                 7.285000            28.2439
730                 7.305000            55.514
732                 7.325000            78.6638
734                 7.345000            94.2697
736                 7.365000            100.236
738                 7.385000            96.0422
740                 7.405000            82.7224
742                 7.425000            62.5879
744                 7.445000            38.7733
746                 7.465000            14.6898
748                 7.485000            -6.510420
750                 7.505000            -22.3746
752                 7.525000            -31.4323
754                 7.545000            -33.2973
756                 7.565000            -28.5968
758                 7.585000            -18.7657
760                 7.605000            -5.758956
762                 7.625000            8.262327
764                 7.645000            21.2217
766                 7.665000            31.3636
768                 7.685000            37.4194
770                 7.705000            38.7033
772                 7.725000            35.1451
774                 7.745000            27.274
776                 7.765000            16.1585
778                 7.785000            3.305174
780                 7.805000            -9.482668
782                 7.825000            -20.2912
784                 7.845000            -27.3196
786                 7.865000            -29.1255
788                 7.885000            -24.865
790                 7.905000            -14.4843
792                 7.925000            1.176202
794                 7.945000            20.4066
796                 7.965000            40.7986
798                 7.985000            59.5591
800                 8.005000            73.9293
802                 8.025000            81.6477
804                 8.045000            81.3738
806                 8.065000            72.9899
808                 8.085000            57.7085
810                 8.105000            37.9493
812                 8.125000            16.9859
814                 8.145000            -1.584966
816                 8.165000            -14.4658
818                 8.185000            -19.256
820                 8.205000            -14.9112
822                 8.225000            -1.967833
824                 8.245000            17.519
826                 8.265000            40.3238
828                 8.285000            62.6253
830                 8.305000            80.7023
832                 8.325000            91.6172
834                 8.345000            93.7522
836                 8.365000            87.0932
838                 8.385000            73.2003
840                 8.405000            54.8716
842                 8.425000            35.5665
844                 8.445000            18.7051
846                 8.465000            6.987041
848                 8.485000            1.868546
850                 8.505000            3.305469
852                 8.525000            9.813767
854                 8.545000            18.8329
856                 8.565000            27.3142
858                 8.585000            32.4075
860                 8.605000            32.1009
862                 8.625000            25.6752
864                 8.645000            13.8761
866                 8.665000            -1.233172
868                 8.685000            -16.7087
870                 8.705000            -29.3587
872                 8.725000            -36.4385
874                 8.745000            -36.2567
876                 8.765000            -28.5644
878                 8.785000            -14.6401
880                 8.805000            2.948791
882                 8.825000            20.8603
884                 8.845000            35.662
886                 8.865000            44.5401
888                 8.885000            45.8872
890                 8.905000            39.6426
892                 8.925000            27.3155
894                 8.945000            11.6838
896                 8.965000            -3.767927
898                 8.985000            -15.5555
900                 9.005000            -20.902
902                 9.025000            -18.2983
904                 9.045000            -7.804676
906                 9.065000            8.966328
908                 9.085000            29.178
910                 9.105000            49.3379
912                 9.125000            65.9878
914                 9.145000            76.3723
916                 9.165000            78.9523
918                 9.185000            73.6627
920                 9.205000            61.8702
922                 9.225000            46.0479
924                 9.245000            29.2429
926                 9.265000            14.4518
928                 9.285000            4.036083
930                 9.305000            -0.705903
932                 9.325000            0.272055
934                 9.345000            5.842213
936                 9.365000            14.0199
938                 9.385000            22.4419
940                 9.405000            28.8985
942                 9.425000            31.8031
944                 9.445000            30.5027
946                 9.465000            25.3707
948                 9.485000            17.6696
950                 9.505000            9.226608
952                 9.525000            1.997303
954                 9.545000            -2.379706
956                 9.565000            -2.941181
958                 9.585000            0.405727
960                 9.605000            6.888539
962                 9.625000            15.0664
964                 9.645000            23.169
966                 9.665000            29.4973
968                 9.685000            32.7964
970                 9.705000            32.5176
972                 9.725000            28.9159
974                 9.745000            22.9659
976                 9.765000            16.12
978                 9.785000            9.967760
980                 9.805000            5.874532
982                 9.825000            4.681271
984                 9.845000            6.530736
986                 9.865000            10.8564
988                 9.885000            16.5328
990                 9.905000            22.1506
992                 9.925000            26.3512
994                 9.945000            28.1465
996                 9.965000            27.1488
998                 9.985000            23.6635
1000                10.005           18.6214
1002                10.025           13.3688
1004                10.045           9.361963
1006                10.065           7.832781
1008                10.085           9.501412
1010                10.105           14.3973
1012                10.125           21.8287
1014                10.145           30.5078
1016                10.165           38.8048
1018                10.185           45.0771
1020                10.205           48.0048
1022                10.225           46.8621
1024                10.245           41.6681
1026                10.265           33.1875
1028                10.285           22.7808
1030                10.305           12.1382
1032                10.325           2.950553
1034                10.345           -3.413815
1036                10.365           -6.161801
1038                10.385           -5.208841
1040                10.405           -1.168786
1042                10.425           4.793645
1044                10.445           11.2143
1046                10.465           16.6311
1048                10.485           19.8741
1050                10.505           20.2853
1052                10.525           17.8277
1054                10.545           13.0644
1056                10.565           7.018397
1058                10.585           0.944173
1060                10.605           -3.937738
1062                10.625           -6.689051
1064                10.645           -6.834639
1066                10.665           -4.441973
1068                10.685           -0.086695
1070                10.705           5.284452
1072                10.725           10.5617
1074                10.745           14.7066
1076                10.765           16.9633
1078                10.785           17.0057
1080                10.805           14.9915
1082                10.825           11.515
1084                10.845           7.472733
1086                10.865           3.869220
1088                10.885           1.606266
1090                10.905           1.296799
1092                10.925           3.141022
1094                10.945           6.887939
1096                10.965           11.8881
1098                10.985           17.2251
1100                11.005           21.8989
1102                11.025           25.0231
1104                11.045           25.9986
1106                11.065           24.6303
1108                11.085           21.1646
1110                11.105           16.2441
1112                11.125           10.7868
1114                11.145           5.816663
1116                11.165           2.276284
1118                11.185           0.857217
1120                11.205           1.878775
1122                11.225           5.236107
1124                11.245           10.4253
1126                11.265           16.6388
1128                11.285           22.9123
1130                11.305           28.2952
1132                11.325           32.0132
1134                11.345           33.5948
1136                11.365           32.9398
1138                11.385           30.3205
1140                11.405           26.3161
1142                11.425           21.6955
1144                11.445           17.2704
1146                11.465           13.7468
1148                11.485           11.5996
1150                11.505           10.9948
1152                11.525           11.7697
1154                11.545           13.4746
1156                11.565           15.4667
1158                11.585           17.0385
1160                11.605           17.5567
1162                11.625           16.5865
1164                11.645           13.9802
1166                11.665           9.912758
1168                11.685           4.860454
1170                11.705           -0.475077
1172                11.725           -5.282591
1174                11.745           -8.777067
1176                11.765           -10.3319
1178                11.785           -9.584679
1180                11.805           -6.499292
1182                11.825           -1.373535
1184                11.845           5.207433
1186                11.865           12.4635
1188                11.885           19.5413
1190                11.905           25.644
1192                11.925           30.1479
1194                11.945           32.686
1196                11.965           33.1862
1198                11.985           31.8607
1200                12.005           29.149
1202                12.025           25.6275
1204                12.045           21.9038
1206                12.065           18.5133
1208                12.085           15.837
1210                12.105           14.0539
1212                12.125           13.1329
1214                12.145           12.8643
1216                12.165           12.9219
1218                12.185           12.9413
1220                12.205           12.6
1222                12.225           11.6823
1224                12.245           10.1188
1226                12.265           7.993782
1228                12.285           5.521219
1230                12.305           2.995729
1232                12.325           0.730060
1234                12.345           -1.008138
1236                12.365           -2.047437
1238                12.385           -2.342097
1240                12.405           -1.975017
1242                12.425           -1.134830
1244                12.445           -0.072851
1246                12.465           0.950649
1248                12.485           1.719727
1250                12.505           2.105062
1252                12.525           2.087353
1254                12.545           1.757929
1256                12.565           1.297312
1258                12.585           0.936657
1260                12.605           0.910056
1262                12.625           1.407032
1264                12.645           2.534101
1266                12.665           4.292100
1268                12.685           6.572827
1270                12.705           9.174818
1272                12.725           11.8348
1274                12.745           14.2686
1276                12.765           16.2151
1278                12.785           17.4743
1280                12.805           17.9361
1282                12.825           17.5942
1284                12.845           16.5446
1286                12.865           14.9696
1288                12.885           13.1113
1290                12.905           11.2367
1292                12.925           9.602306
1294                12.945           8.420257
1296                12.965           7.831281
1298                12.985           7.887398
1300                13.005           8.546035
1302                13.025           9.676312
1304                13.045           11.0769
1306                13.065           12.5034
1308                13.085           13.7026
1310                13.105           14.4494
1312                13.125           14.5809
1314                13.145           14.0239
1316                13.165           12.8106
1318                13.185           11.0787
1320                13.205           9.054961
1322                13.225           7.023490
1324                13.245           5.282102
1326                13.265           4.093373
1328                13.285           3.638288
1330                13.305           3.980869
1332                13.325           5.051000
1334                13.345           6.650075
1336                13.365           8.480213
1338                13.385           10.1935
1340                13.405           11.4532
1342                13.425           11.9975
1344                13.445           11.6915
1346                13.465           10.5599
1348                13.485           8.790324
1350                13.505           6.706462
1352                13.525           4.713757
1354                13.545           3.226841
1356                13.565           2.591659
1358                13.585           3.016999
1360                13.605           4.528989
1362                13.625           6.958215
1364                13.645           9.963124
1366                13.665           13.0864
1368                13.685           15.8341
1370                13.705           17.764
1372                13.725           18.5637
1374                13.745           18.1074
1376                13.765           16.4753
1378                13.785           13.9359
1380                13.805           10.8916
1382                13.825           7.800458
1384                13.845           5.088016
1386                13.865           3.068745
1388                13.885           1.891556
1390                13.905           1.521134
1392                13.925           1.758354
1394                13.945           2.295164
1396                13.965           2.791998
1398                13.985           2.960962
1400                14.005           2.636676
1402                14.025           1.819177
1404                14.045           0.679103
1406                14.065           -0.476589
1408                14.085           -1.271668
1410                14.105           -1.346535
1412                14.125           -0.444778
1414                14.145           1.518365
1416                14.165           4.420944
1418                14.185           7.941226
1420                14.205           11.6066
1422                14.225           14.8754
1424                14.245           17.2367
1426                14.265           18.307
1428                14.285           17.9057
1430                14.305           16.0934
1432                14.325           13.165
1434                14.345           9.599172
1436                14.365           5.972773
1438                14.385           2.858220
1440                14.405           0.722424
1442                14.425           -0.152851
1444                14.445           0.285363
1446                14.465           1.861014
1448                14.485           4.210948
1450                14.505           6.859501
1452                14.525           9.310244
1454                14.545           11.1366
1456                14.565           12.054
1458                14.585           11.9611
1460                14.605           10.9434
1462                14.625           9.241502
1464                14.645           7.193269
1466                14.665           5.161831
1468                14.685           3.466275
1470                14.705           2.327904
1472                14.725           1.841715
1474                14.745           1.976471
1476                14.765           2.600451
1478                14.785           3.524691
1480                14.805           4.552456
1482                14.825           5.523262
1484                14.845           6.342050
1486                14.865           6.988298
1488                14.885           7.504992
1490                14.905           7.972128
1492                14.925           8.472815
1494                14.945           9.061262
1496                14.965           9.740869
1498                14.985           10.4577
1500                15.005           11.1101
1502                15.025           11.5725
1504                15.045           11.7247
1506                15.065           11.4821
1508                15.085           10.816
1510                15.105           9.761205
1512                15.125           8.408823
1514                15.145           6.885861
1516                15.165           5.327904
1518                15.185           3.851656
1520                15.205           2.534457
1522                15.225           1.405871
1524                15.245           0.453146
1526                15.265           -0.361368
1528                15.285           -1.075987
1530                15.305           -1.705742
1532                15.325           -2.225880
1534                15.345           -2.568200
1536                15.365           -2.632337
1538                15.385           -2.310153
1540                15.405           -1.517735
1542                15.425           -0.227059
1544                15.445           1.511150
1546                15.465           3.560317
1548                15.485           5.710228
1550                15.505           7.707727
1552                15.525           9.300550
1554                15.545           10.2855
1556                15.565           10.5505
1558                15.585           10.1011
1560                15.605           9.064372
1562                15.625           7.668266
1564                15.645           6.200151
1566                15.665           4.951691
1568                15.685           4.161836
1570                15.705           3.969601
1572                15.725           4.386816
1574                15.745           5.296863
1576                15.765           6.480013
1578                15.785           7.660226
1580                15.805           8.563663
1582                15.825           8.976529
1584                15.845           8.789936
1586                15.865           8.022216
1588                15.885           6.813929
1590                15.905           5.396717
1592                15.925           4.042791
1594                15.945           3.006071
1596                15.965           2.467770
1598                15.985           2.498301
1600                16.005           3.043760
1602                16.025           3.939936
1604                16.045           4.950752
1606                16.065           5.822696
1608                16.085           6.343310
1610                16.105           6.390852
1612                16.125           5.964102
1614                16.145           5.185584
1616                16.165           4.277122
1618                16.185           3.512669
1620                16.205           3.158214
1622                16.225           3.411425
1624                16.245           4.353804
1626                16.265           5.925624
1628                16.285           7.929185
1630                16.305           10.0601
1632                16.325           11.9608
1634                16.345           13.2854
1636                16.365           13.7636
1638                16.385           13.2512
1640                16.405           11.7577
1642                16.425           9.445401
1644                16.445           6.602271
1646                16.465           3.592409
1648                16.485           0.795469
1650                16.505           -1.454302
1652                16.525           -2.918133
1654                16.545           -3.483624
1656                16.565           -3.172213
1658                16.585           -2.123724
1660                16.605           -0.562683
1662                16.625           1.245810
1664                16.645           3.041687
1666                16.665           4.608619
1668                16.685           5.799720
1670                16.705           6.547361
1672                16.725           6.857693
1674                16.745           6.793430
1676                16.765           6.450306
1678                16.785           5.933107
1680                16.805           5.336303
1682                16.825           4.732437
1684                16.845           4.169107
1686                16.865           3.673119
1688                16.885           3.258840
1690                16.905           2.937101
1692                16.925           2.721429
1694                16.945           2.629541
1696                16.965           2.679747
1698                16.985           2.883547
1700                17.005           3.236908
1702                17.025           3.713233
1704                17.045           4.260647
1706                17.065           4.805185
1708                17.085           5.259937
1710                17.105           5.538702
1712                17.125           5.571478
1714                17.145           5.318548
1716                17.165           4.780119
1718                17.185           3.999360
1720                17.205           3.058058
1722                17.225           2.065610
1724                17.245           1.143420
1726                17.265           0.407582
1728                17.285           -0.047087
1730                17.305           -0.159048
1732                17.325           0.093553
1734                17.345           0.692504
1736                17.365           1.584432
1738                17.385           2.689400
1740                17.405           3.911219
1742                17.425           5.147614
1744                17.445           6.298913
1746                17.465           7.274670
1748                17.485           7.998343
1750                17.505           8.410660
1752                17.525           8.472436
1754                17.545           8.167378
1756                17.565           7.504915
1758                17.585           6.522498
1760                17.605           5.286353
1762                17.625           3.889494
1764                17.645           2.446068
1766                17.665           1.081733
1768                17.685           -0.079327
1770                17.705           -0.929197
1772                17.725           -1.390545
1774                17.745           -1.427846
1776                17.765           -1.053178
1778                17.785           -0.325034
1780                17.805           0.660144
1782                17.825           1.782615
1784                17.845           2.917753
1786                17.865           3.954995
1788                17.885           4.813822
1790                17.905           5.453801
1792                17.925           5.876810
1794                17.945           6.121149
1796                17.965           6.248863
1798                17.985           6.328988
1800                18.005           6.420273
1802                18.025           6.557002
1804                18.045           6.740898
1806                18.065           6.940751
1808                18.085           7.099793
1810                18.105           7.149170
1812                18.125           7.024609
1814                18.145           6.682651
1816                18.165           6.113000
1818                18.185           5.344294
1820                18.205           4.442067
1822                18.225           3.499254
1824                18.245           2.621152
1826                18.265           1.907843
1828                18.285           1.437573
1830                18.305           1.254265
1832                18.325           1.361454
1834                18.345           1.723556
1836                18.365           2.273860
1838                18.385           2.927337
1840                18.405           3.595491
1842                18.425           4.200220
1844                18.445           4.684099
1846                18.465           5.015390
1848                18.485           5.187364
1850                18.505           5.212769
1852                18.525           5.115262
1854                18.545           4.920198
1856                18.565           4.647102
1858                18.585           4.305615
1860                18.605           3.895714
1862                18.625           3.411945
1864                18.645           2.850332
1866                18.665           2.216012
1868                18.685           1.529386
1870                18.705           0.828925
1872                18.725           0.169526
1874                18.745           -0.383668
1876                18.765           -0.764992
1878                18.785           -0.919680
1880                18.805           -0.814653
1882                18.825           -0.446347
1884                18.845           0.156186
1886                18.865           0.933824
1888                18.885           1.805314
1890                18.905           2.679324
1892                18.925           3.468457
1894                18.945           4.102648
1896                18.965           4.539495
1898                18.985           4.769585
1900                19.005           4.815875
1902                19.025           4.727278
1904                19.045           4.567727
1906                19.065           4.402832
1908                19.085           4.286694
1910                19.105           4.251378
1912                19.125           4.301053
1914                19.145           4.411854
1916                19.165           4.537471
1918                19.185           4.619334
1920                19.205           4.599401
1922                19.225           4.433074
1924                19.245           4.099708
1926                19.265           3.608679
1928                19.285           2.999777
1930                19.305           2.337802
1932                19.325           1.702310
1934                19.345           1.174402
1936                19.365           0.822983
1938                19.385           0.693048
1940                19.405           0.798132
1942                19.425           1.118306
1944                19.445           1.604010
1946                19.465           2.184924
1948                19.485           2.782136
1950                19.505           3.321232
1952                19.525           3.743843
1954                19.545           4.015496
1956                19.565           4.128439
1958                19.585           4.099131
1960                19.605           3.961231
1962                19.625           3.755802
1964                19.645           3.521059
1966                19.665           3.283992
1968                19.685           3.055796
1970                19.705           2.832095
1972                19.725           2.597869
1974                19.745           2.335824
1976                19.765           2.036089
1978                19.785           1.704677
1980                19.805           1.368331
1982                19.825           1.074060
1984                19.845           0.882849
1986                19.865           0.858363
1988                19.885           1.052726
1990                19.905           1.492351
1992                19.925           2.167042
1994                19.945           3.025190
1996                19.965           3.976813
1998                19.985           4.904641
1999                19.995           5.319774