File: example/NaCl_20x20x20/cpp/o.S_XRD.dat
bin                 q                   S
0                   0.005000            5389.89
2                   0.025000            5055.89
4                   0.045000            4323.89
6                   0.065000            3299.46
8                   0.085000            2126.91
10                  0.105000            964.965
12                  0.125000            -39.4461
14                  0.145000            -774.458
16                  0.165000            -1179.49
18                  0.185000            -1251.77
20                  0.205000            -1042.31
22                  0.225000            -642.697
24                  0.245000            -165.358
26                  0.265000            278.427
28                  0.285000            598.713
30                  0.305000            741.498
32                  0.325000            695.357
34                  0.345000            489.363
36                  0.365000            183.297
38                  0.385000            -147.382
40                  0.405000            -428.47
42                  0.425000            -602.324
44                  0.445000            -638.578
46                  0.465000            -538.415
48                  0.485000            -331.971
50                  0.505000            -69.9002
52                  0.525000            188.774
54                  0.545000            389.709
56                  0.565000            494.427
58                  0.585000            487.396
60                  0.605000            377.786
62                  0.625000            195.889
64                  0.645000            -14.7084
66                  0.665000            -207.258
68                  0.685000            -341.977
70                  0.705000            -394.025
72                  0.725000            -357.758
74                  0.745000            -246.593
76                  0.765000            -88.8028
78                  0.785000            79.5986
80                  0.805000            223.139
82                  0.825000            314.485
84                  0.845000            339.734
86                  0.865000            300.417
88                  0.885000            211.971
90                  0.905000            99.2664
92                  0.925000            -9.653862
94                  0.945000            -90.1046
96                  0.965000            -126.106
98                  0.985000            -113.42
100                 1.005000            -59.7445
102                 1.025000            17.8212
104                 1.045000            97.2973
106                 1.065000            157.215
108                 1.085000            181.602
110                 1.105000            163.465
112                 1.125000            106.051
114                 1.145000            21.7021
116                 1.165000            -71.2997
118                 1.185000            -153.125
120                 1.205000            -206.958
122                 1.225000            -222.693
124                 1.245000            -198.988
126                 1.265000            -143.251
128                 1.285000            -69.6753
130                 1.305000            4.184911
132                 1.325000            61.4633
134                 1.345000            89.7347
136                 1.365000            83.6489
138                 1.385000            45.8988
140                 1.405000            -13.6315
142                 1.425000            -80.29
144                 1.445000            -138.067
146                 1.465000            -173.209
148                 1.485000            -177.254
150                 1.505000            -148.821
152                 1.525000            -93.829
154                 1.545000            -24.1254
156                 1.565000            45.1419
158                 1.585000            98.8131
160                 1.605000            124.964
162                 1.625000            117.439
164                 1.645000            77.1553
166                 1.665000            11.96
168                 1.685000            -64.922
170                 1.705000            -137.487
172                 1.725000            -190.078
174                 1.745000            -210.412
176                 1.765000            -191.943
178                 1.785000            -135.135
180                 1.805000            -47.4313
182                 1.825000            58.0255
184                 1.845000            164.674
186                 1.865000            255.385
188                 1.885000            315.384
190                 1.905000            334.764
192                 1.925000            310.181
194                 1.945000            245.498
196                 1.965000            151.303
198                 1.985000            43.3919
200                 2.005000            -59.5278
202                 2.025000            -138.574
204                 2.045000            -177.477
206                 2.065000            -165.022
208                 2.085000            -96.8339
210                 2.105000            23.7676
212                 2.125000            185.938
214                 2.145000            372.522
216                 2.165000            562.158
218                 2.185000            732.032
220                 2.205000            860.911
222                 2.225000            932.064
224                 2.245000            935.654
226                 2.265000            870.225
228                 2.285000            743.06
230                 2.305000            569.277
232                 2.325000            369.776
234                 2.345000            168.29
236                 2.365000            -12.0254
238                 2.385000            -151.944
240                 2.405000            -238.926
242                 2.425000            -268.811
244                 2.445000            -246.164
246                 2.465000            -183.179
248                 2.485000            -97.3323
250                 2.505000            -8.171991
252                 2.525000            66.1788
254                 2.545000            112.189
256                 2.565000            123.171
258                 2.585000            100.206
260                 2.605000            51.5724
262                 2.625000            -9.208005
264                 2.645000            -66.3253
266                 2.665000            -105.056
268                 2.685000            -114.893
270                 2.705000            -91.8017
272                 2.725000            -39.1504
274                 2.745000            32.8863
276                 2.765000            109.345
278                 2.785000            173.519
280                 2.805000            210.431
282                 2.825000            210.036
284                 2.845000            169.515
286                 2.865000            94.1751
288                 2.885000            -3.237310
290                 2.905000            -104.699
292                 2.925000            -190.15
294                 2.945000            -241.185
296                 2.965000            -244.506
298                 2.985000            -194.463
300                 3.005000            -94.2146
302                 3.025000            44.7115
304                 3.045000            204.349
306                 3.065000            363.349
308                 3.085000            500.559
310                 3.105000            598.482
312                 3.125000            645.963
314                 3.145000            639.668
316                 3.165000            584.14
318                 3.185000            490.496
320                 3.205000            374.094
322                 3.225000            251.666
324                 3.245000            138.481
326                 3.265000            46.0602
328                 3.285000            -19.1782
330                 3.305000            -56.1861
332                 3.325000            -68.5323
334                 3.345000            -62.8924
336                 3.365000            -47.1767
338                 3.385000            -28.7255
340                 3.405000            -12.9414
342                 3.425000            -2.595177
344                 3.445000            2.132405
346                 3.465000            2.985551
348                 3.485000            2.591382
350                 3.505000            3.354076
352                 3.525000            6.586069
354                 3.545000            12.0932
356                 3.565000            18.298
358                 3.585000            22.8401
360                 3.605000            23.4638
362                 3.625000            18.9334
364                 3.645000            9.705424
366                 3.665000            -1.847319
368                 3.685000            -11.7537
370                 3.705000            -15.2575
372                 3.725000            -7.950872
374                 3.745000            13.0362
376                 3.765000            48.0819
378                 3.785000            94.6025
380                 3.805000            147.212
382                 3.825000            198.518
384                 3.845000            240.418
386                 3.865000            265.631
388                 3.885000            269.158
390                 3.905000            249.346
392                 3.925000            208.327
394                 3.945000            151.728
396                 3.965000            87.681
398                 3.985000            25.3521
400                 4.005000            -26.7377
402                 4.025000            -62.2449
404                 4.045000            -78.0849
406                 4.065000            -74.8488
408                 4.085000            -56.481
410                 4.105000            -29.3017
412                 4.125000            -0.589323
414                 4.145000            22.968
416                 4.165000            36.6274
418                 4.185000            38.4724
420                 4.205000            29.6498
422                 4.225000            13.9318
424                 4.245000            -3.280088
426                 4.265000            -16.2752
428                 4.285000            -20.3817
430                 4.305000            -13.0445
432                 4.325000            5.597708
434                 4.345000            32.7513
436                 4.365000            63.6009
438                 4.385000            92.3843
440                 4.405000            113.662
442                 4.425000            123.496
444                 4.445000            120.275
446                 4.465000            105.018
448                 4.485000            81.0795
450                 4.505000            53.3527
452                 4.525000            27.1436
454                 4.545000            6.978852
456                 4.565000            -4.382139
458                 4.585000            -6.508813
460                 4.605000            -1.309924
462                 4.625000            7.507854
464                 4.645000            15.4091
466                 4.665000            18.2063
468                 4.685000            13.1754
470                 4.705000            -0.146114
472                 4.725000            -19.6662
474                 4.745000            -41.0305
476                 4.765000            -58.4489
478                 4.785000            -65.8905
480                 4.805000            -58.3989
482                 4.825000            -33.249
484                 4.845000            9.301481
486                 4.865000            65.8311
488                 4.885000            130.191
490                 4.905000            194.482
492                 4.925000            250.372
494                 4.945000            290.516
496                 4.965000            309.78
498                 4.985000            306.053
500                 5.005000            280.49
502                 5.025000            237.175
504                 5.045000            182.277
506                 5.065000            122.892
508                 5.085000            65.8197
510                 5.105000            16.5123
512                 5.125000            -21.6113
514                 5.145000            -47.374
516                 5.165000            -61.575
518                 5.185000            -66.3541
520                 5.205000            -64.3613
522                 5.225000            -57.9448
524                 5.245000            -48.5499
526                 5.265000            -36.4648
528                 5.285000            -20.9577
530                 5.305000            -0.754720
532                 5.325000            25.278
534                 5.345000            57.4319
536                 5.365000            94.6266
538                 5.385000            134.206
540                 5.405000            172.136
542                 5.425000            203.591
544                 5.445000            223.809
546                 5.465000            229.052
548                 5.485000            217.446
550                 5.505000            189.519
552                 5.525000            148.292
554                 5.545000            98.9013
556                 5.565000            47.7787
558                 5.585000            1.572012
560                 5.605000            -34.0049
562                 5.625000            -55.1555
564                 5.645000            -60.6233
566                 5.665000            -51.8296
568                 5.685000            -32.5018
570                 5.705000            -7.869495
572                 5.725000            16.4025
574                 5.745000            35.3273
576                 5.765000            45.529
578                 5.785000            45.809
580                 5.805000            37.2427
582                 5.825000            22.7966
584                 5.845000            6.562654
586                 5.865000            -7.219206
588                 5.885000            -15.1356
590                 5.905000            -15.3618
592                 5.925000            -8.050733
594                 5.945000            4.728854
596                 5.965000            19.4866
598                 5.985000            32.1236
600                 6.005000            38.8863
602                 6.025000            37.2511
604                 6.045000            26.5491
606                 6.065000            8.194006
608                 6.085000            -14.5374
610                 6.105000            -37.1287
612                 6.125000            -54.7226
614                 6.145000            -63.1106
616                 6.165000            -59.6105
618                 6.185000            -43.6514
620                 6.205000            -16.9509
622                 6.225000            16.7516
624                 6.245000            52.3502
626                 6.265000            84.2846
628                 6.285000            107.531
630                 6.305000            118.482
632                 6.325000            115.552
634                 6.345000            99.4103
636                 6.365000            72.8018
638                 6.385000            40.0238
640                 6.405000            6.158824
642                 6.425000            -23.7765
644                 6.445000            -45.6101
646                 6.465000            -56.5901
648                 6.485000            -55.6741
650                 6.505000            -43.5129
652                 6.525000            -22.1691
654                 6.545000            5.346909
656                 6.565000            35.6121
658                 6.585000            65.2935
660                 6.605000            91.536
662                 6.625000            112.192
664                 6.645000            125.894
666                 6.665000            131.999
668                 6.685000            130.475
670                 6.705000            121.768
672                 6.725000            106.713
674                 6.745000            86.4975
676                 6.765000            62.664
678                 6.785000            37.1222
680                 6.805000            12.1197
682                 6.825000            -9.869610
684                 6.845000            -26.3605
686                 6.865000            -35.1657
688                 6.885000            -34.7555
690                 6.905000            -24.5994
692                 6.925000            -5.408162
694                 6.945000            20.7968
696                 6.965000            50.8318
698                 6.985000            80.7235
700                 7.005000            106.262
702                 7.025000            123.653
704                 7.045000            130.148
706                 7.065000            124.546
708                 7.085000            107.456
710                 7.105000            81.2621
712                 7.125000            49.7833
714                 7.145000            17.6829
716                 7.165000            -10.2809
718                 7.185000            -30.0269
720                 7.205000            -38.8102
722                 7.225000            -35.6532
724                 7.245000            -21.4734
726                 7.265000            1.108919
728                 7.285000            28.2439
730                 7.305000            55.514
732                 7.325000            78.6638
734                 7.345000            94.2696
736                 7.365000            100.236
738                 7.385000            96.0421
740                 7.405000            82.7224
742                 7.425000            62.5879
744                 7.445000            38.7733
746                 7.465000            14.6898
748                 7.485000            -6.510399
750                 7.505000            -22.3745
752                 7.525000            -31.4322
754                 7.545000            -33.2972
756                 7.565000            -28.5968
758                 7.585000            -18.7657
760                 7.605000            -5.758965
762                 7.625000            8.262310
764                 7.645000            21.2216
766                 7.665000            31.3635
768                 7.685000            37.4194
770                 7.705000            38.7032
772                 7.725000            35.1451
774                 7.745000            27.274
776                 7.765000            16.1585
778                 7.785000            3.305181
780                 7.805000            -9.482659
782                 7.825000            -20.2912
784                 7.845000            -27.3195
786                 7.865000            -29.1255
788                 7.885000            -24.865
790                 7.905000            -14.4843
792                 7.925000            1.176197
794                 7.945000            20.4066
796                 7.965000            40.7986
798                 7.985000            59.5591
800                 8.005000            73.9293
802                 8.025000            81.6477
804                 8.045000            81.3739
806                 8.065000            72.9899
808                 8.085000            57.7085
810                 8.105000            37.9493
812                 8.125000            16.9859
814                 8.145000            -1.584963
816                 8.165000            -14.4658
818                 8.185000            -19.256
820                 8.205000            -14.9112
822                 8.225000            -1.967860
824                 8.245000            17.519
826                 8.265000            40.3237
828                 8.285000            62.6252
830                 8.305000            80.7023
832                 8.325000            91.6172
834                 8.345000            93.7522
836                 8.365000            87.0933
838                 8.385000            73.2003
840                 8.405000            54.8716
842                 8.425000            35.5665
844                 8.445000            18.7051
846                 8.465000            6.987043
848                 8.485000            1.868540
850                 8.505000            3.305455
852                 8.525000            9.813748
854                 8.545000            18.8329
856                 8.565000            27.3142
858                 8.585000            32.4075
860                 8.605000            32.1009
862                 8.625000            25.6752
864                 8.645000            13.8761
866                 8.665000            -1.233160
868                 8.685000            -16.7086
870                 8.705000            -29.3587
872                 8.725000            -36.4384
874                 8.745000            -36.2567
876                 8.765000            -28.5644
878                 8.785000            -14.6401
880                 8.805000            2.948792
882                 8.825000            20.8603
884                 8.845000            35.662
886                 8.865000            44.5401
888                 8.885000            45.8872
890                 8.905000            39.6426
892                 8.925000            27.3155
894                 8.945000            11.6838
896                 8.965000            -3.767921
898                 8.985000            -15.5555
900                 9.005000            -20.902
902                 9.025000            -18.2983
904                 9.045000            -7.804682
906                 9.065000            8.966318
908                 9.085000            29.1779
910                 9.105000            49.3379
912                 9.125000            65.9878
914                 9.145000            76.3723
916                 9.165000            78.9523
918                 9.185000            73.6627
920                 9.205000            61.8702
922                 9.225000            46.0479
924                 9.245000            29.2429
926                 9.265000            14.4518
928                 9.285000            4.036099
930                 9.305000            -0.705890
932                 9.325000            0.272065
934                 9.345000            5.842216
936                 9.365000            14.0199
938                 9.385000            22.4419
940                 9.405000            28.8985
942                 9.425000            31.803
944                 9.445000            30.5027
946                 9.465000            25.3707
948                 9.485000            17.6696
950                 9.505000            9.226608
952                 9.525000            1.997309
954                 9.545000            -2.379694
956                 9.565000            -2.941166
958                 9.585000            0.405744
960                 9.605000            6.888555
962                 9.625000            15.0664
964                 9.645000            23.169
966                 9.665000            29.4973
968                 9.685000            32.7964
970                 9.705000            32.5176
972                 9.725000            28.9159
974                 9.745000            22.9659
976                 9.765000            16.12
978                 9.785000            9.967750
980                 9.805000            5.874525
982                 9.825000            4.681267
984                 9.845000            6.530736
986                 9.865000            10.8564
988                 9.885000            16.5328
990                 9.905000            22.1506
992                 9.925000            26.3512
994                 9.945000            28.1465
996                 9.965000            27.1488
998                 9.985000            23.6635
1000                10.005           18.6214
1002                10.025           13.3688
1004                10.045           9.361959
1006                10.065           7.832780
1008                10.085           9.501414
1010                10.105           14.3973
1012                10.125           21.8287
1014                10.145           30.5079
1016                10.165           38.8048
1018                10.185           45.0771
1020                10.205           48.0048
1022                10.225           46.8621
1024                10.245           41.6681
1026                10.265           33.1875
1028                10.285           22.7808
1030                10.305           12.1382
1032                10.325           2.950543
1034                10.345           -3.413823
1036                10.365           -6.161806
1038                10.385           -5.208842
1040                10.405           -1.168782
1042                10.425           4.793653
1044                10.445           11.2143
1046                10.465           16.6311
1048                10.485           19.8741
1050                10.505           20.2853
1052                10.525           17.8277
1054                10.545           13.0644
1056                10.565           7.018392
1058                10.585           0.944164
1060                10.605           -3.937750
1062                10.625           -6.689064
1064                10.645           -6.834652
1066                10.665           -4.441984
1068                10.685           -0.086703
1070                10.705           5.284449
1072                10.725           10.5617
1074                10.745           14.7066
1076                10.765           16.9633
1078                10.785           17.0057
1080                10.805           14.9915
1082                10.825           11.515
1084                10.845           7.472737
1086                10.865           3.869222
1088                10.885           1.606266
1090                10.905           1.296798
1092                10.925           3.141020
1094                10.945           6.887937
1096                10.965           11.8881
1098                10.985           17.2251
1100                11.005           21.8989
1102                11.025           25.0231
1104                11.045           25.9986
1106                11.065           24.6303
1108                11.085           21.1647
1110                11.105           16.2441
1112                11.125           10.7868
1114                11.145           5.816660
1116                11.165           2.276279
1118                11.185           0.857210
1120                11.205           1.878768
1122                11.225           5.236101
1124                11.245           10.4253
1126                11.265           16.6388
1128                11.285           22.9123
1130                11.305           28.2952
1132                11.325           32.0132
1134                11.345           33.5948
1136                11.365           32.9398
1138                11.385           30.3205
1140                11.405           26.3161
1142                11.425           21.6955
1144                11.445           17.2704
1146                11.465           13.7468
1148                11.485           11.5996
1150                11.505           10.9948
1152                11.525           11.7697
1154                11.545           13.4746
1156                11.565           15.4667
1158                11.585           17.0385
1160                11.605           17.5567
1162                11.625           16.5865
1164                11.645           13.9802
1166                11.665           9.912767
1168                11.685           4.860463
1170                11.705           -0.475069
1172                11.725           -5.282585
1174                11.745           -8.777064
1176                11.765           -10.3319
1178                11.785           -9.584681
1180                11.805           -6.499296
1182                11.825           -1.373540
1184                11.845           5.207428
1186                11.865           12.4635
1188                11.885           19.5413
1190                11.905           25.644
1192                11.925           30.1479
1194                11.945           32.686
1196                11.965           33.1862
1198                11.985           31.8607
1200                12.005           29.149
1202                12.025           25.6275
1204                12.045           21.9038
1206                12.065           18.5132
1208                12.085           15.837
1210                12.105           14.0539
1212                12.125           13.1329
1214                12.145           12.8643
1216                12.165           12.9219
1218                12.185           12.9413
1220                12.205           12.6
1222                12.225           11.6823
1224                12.245           10.1188
1226                12.265           7.993786
1228                12.285           5.521221
1230                12.305           2.995730
1232                12.325           0.730058
1234                12.345           -1.008141
1236                12.365           -2.047442
1238                12.385           -2.342102
1240                12.405           -1.975022
1242                12.425           -1.134833
1244                12.445           -0.072852
1246                12.465           0.950650
1248                12.485           1.719730
1250                12.505           2.105068
1252                12.525           2.087361
1254                12.545           1.757937
1256                12.565           1.297319
1258                12.585           0.936663
1260                12.605           0.910059
1262                12.625           1.407034
1264                12.645           2.534100
1266                12.665           4.292096
1268                12.685           6.572821
1270                12.705           9.174811
1272                12.725           11.8348
1274                12.745           14.2686
1276                12.765           16.2151
1278                12.785           17.4742
1280                12.805           17.9361
1282                12.825           17.5942
1284                12.845           16.5446
1286                12.865           14.9697
1288                12.885           13.1113
1290                12.905           11.2367
1292                12.925           9.602307
1294                12.945           8.420256
1296                12.965           7.831279
1298                12.985           7.887396
1300                13.005           8.546032
1302                13.025           9.676310
1304                13.045           11.0769
1306                13.065           12.5034
1308                13.085           13.7026
1310                13.105           14.4494
1312                13.125           14.5809
1314                13.145           14.0239
1316                13.165           12.8106
1318                13.185           11.0787
1320                13.205           9.054962
1322                13.225           7.023489
1324                13.245           5.282101
1326                13.265           4.093370
1328                13.285           3.638286
1330                13.305           3.980867
1332                13.325           5.050999
1334                13.345           6.650076
1336                13.365           8.480215
1338                13.385           10.1935
1340                13.405           11.4532
1342                13.425           11.9975
1344                13.445           11.6915
1346                13.465           10.5599
1348                13.485           8.790325
1350                13.505           6.706462
1352                13.525           4.713755
1354                13.545           3.226837
1356                13.565           2.591653
1358                13.585           3.016993
1360                13.605           4.528983
1362                13.625           6.958210
1364                13.645           9.963121
1366                13.665           13.0864
1368                13.685           15.8341
1370                13.705           17.764
1372                13.725           18.5638
1374                13.745           18.1074
1376                13.765           16.4753
1378                13.785           13.9359
1380                13.805           10.8916
1382                13.825           7.800459
1384                13.845           5.088016
1386                13.865           3.068744
1388                13.885           1.891554
1390                13.905           1.521131
1392                13.925           1.758352
1394                13.945           2.295163
1396                13.965           2.791998
1398                13.985           2.960963
1400                14.005           2.636678
1402                14.025           1.819179
1404                14.045           0.679105
1406                14.065           -0.476587
1408                14.085           -1.271667
1410                14.105           -1.346534
1412                14.125           -0.444778
1414                14.145           1.518364
1416                14.165           4.420943
1418                14.185           7.941224
1420                14.205           11.6066
1422                14.225           14.8754
1424                14.245           17.2367
1426                14.265           18.307
1428                14.285           17.9057
1430                14.305           16.0934
1432                14.325           13.165
1434                14.345           9.599173
1436                14.365           5.972773
1438                14.385           2.858219
1440                14.405           0.722422
1442                14.425           -0.152854
1444                14.445           0.285359
1446                14.465           1.861011
1448                14.485           4.210945
1450                14.505           6.859498
1452                14.525           9.310243
1454                14.545           11.1366
1456                14.565           12.054
1458                14.585           11.9611
1460                14.605           10.9434
1462                14.625           9.241506
1464                14.645           7.193274
1466                14.665           5.161835
1468                14.685           3.466277
1470                14.705           2.327905
1472                14.725           1.841715
1474                14.745           1.976470
1476                14.765           2.600448
1478                14.785           3.524688
1480                14.805           4.552453
1482                14.825           5.523260
1484                14.845           6.342048
1486                14.865           6.988298
1488                14.885           7.504993
1490                14.905           7.972129
1492                14.925           8.472817
1494                14.945           9.061265
1496                14.965           9.740870
1498                14.985           10.4577
1500                15.005           11.1101
1502                15.025           11.5725
1504                15.045           11.7247
1506                15.065           11.4821
1508                15.085           10.816
1510                15.105           9.761204
1512                15.125           8.408822
1514                15.145           6.885860
1516                15.165           5.327904
1518                15.185           3.851656
1520                15.205           2.534457
1522                15.225           1.405872
1524                15.245           0.453147
1526                15.265           -0.361368
1528                15.285           -1.075987
1530                15.305           -1.705742
1532                15.325           -2.225881
1534                15.345           -2.568201
1536                15.365           -2.632338
1538                15.385           -2.310154
1540                15.405           -1.517735
1542                15.425           -0.227058
1544                15.445           1.511152
1546                15.465           3.560320
1548                15.485           5.710231
1550                15.505           7.707731
1552                15.525           9.300553
1554                15.545           10.2855
1556                15.565           10.5505
1558                15.585           10.1011
1560                15.605           9.064371
1562                15.625           7.668264
1564                15.645           6.200147
1566                15.665           4.951688
1568                15.685           4.161833
1570                15.705           3.969599
1572                15.725           4.386814
1574                15.745           5.296863
1576                15.765           6.480013
1578                15.785           7.660227
1580                15.805           8.563665
1582                15.825           8.976531
1584                15.845           8.789938
1586                15.865           8.022217
1588                15.885           6.813930
1590                15.905           5.396717
1592                15.925           4.042791
1594                15.945           3.006069
1596                15.965           2.467768
1598                15.985           2.498299
1600                16.005           3.043758
1602                16.025           3.939935
1604                16.045           4.950751
1606                16.065           5.822696
1608                16.085           6.343311
1610                16.105           6.390853
1612                16.125           5.964104
1614                16.145           5.185586
1616                16.165           4.277123
1618                16.185           3.512670
1620                16.205           3.158215
1622                16.225           3.411425
1624                16.245           4.353804
1626                16.265           5.925624
1628                16.285           7.929185
1630                16.305           10.0601
1632                16.325           11.9608
1634                16.345           13.2854
1636                16.365           13.7636
1638                16.385           13.2512
1640                16.405           11.7577
1642                16.425           9.445401
1644                16.445           6.602271
1646                16.465           3.592408
1648                16.485           0.795467
1650                16.505           -1.454304
1652                16.525           -2.918136
1654                16.545           -3.483626
1656                16.565           -3.172216
1658                16.585           -2.123726
1660                16.605           -0.562684
1662                16.625           1.245810
1664                16.645           3.041688
1666                16.665           4.608621
1668                16.685           5.799722
1670                16.705           6.547364
1672                16.725           6.857696
1674                16.745           6.793432
1676                16.765           6.450307
1678                16.785           5.933108
1680                16.805           5.336303
1682                16.825           4.732436
1684                16.845           4.169105
1686                16.865           3.673117
1688                16.885           3.258838
1690                16.905           2.937100
1692                16.925           2.721429
1694                16.945           2.629541
1696                16.965           2.679748
1698                16.985           2.883549
1700                17.005           3.236910
1702                17.025           3.713235
1704                17.045           4.260649
1706                17.065           4.805187
1708                17.085           5.259937
1710                17.105           5.538702
1712                17.125           5.571478
1714                17.145           5.318547
1716                17.165           4.780118
1718                17.185           3.999359
1720                17.205           3.058057
1722                17.225           2.065609
1724                17.245           1.143420
1726                17.265           0.407582
1728                17.285           -0.047087
1730                17.305           -0.159048
1732                17.325           0.093553
1734                17.345           0.692504
1736                17.365           1.584432
1738                17.385           2.689400
1740                17.405           3.911218
1742                17.425           5.147613
1744                17.445           6.298912
1746                17.465           7.274669
1748                17.485           7.998343
1750                17.505           8.410660
1752                17.525           8.472437
1754                17.545           8.167380
1756                17.565           7.504917
1758                17.585           6.522500
1760                17.605           5.286355
1762                17.625           3.889496
1764                17.645           2.446069
1766                17.665           1.081733
1768                17.685           -0.079327
1770                17.705           -0.929198
1772                17.725           -1.390546
1774                17.745           -1.427847
1776                17.765           -1.053179
1778                17.785           -0.325035
1780                17.805           0.660144
1782                17.825           1.782615
1784                17.845           2.917754
1786                17.865           3.954996
1788                17.885           4.813824
1790                17.905           5.453803
1792                17.925           5.876811
1794                17.945           6.121150
1796                17.965           6.248863
1798                17.985           6.328988
1800                18.005           6.420272
1802                18.025           6.557000
1804                18.045           6.740896
1806                18.065           6.940750
1808                18.085           7.099791
1810                18.105           7.149169
1812                18.125           7.024608
1814                18.145           6.682651
1816                18.165           6.113000
1818                18.185           5.344294
1820                18.205           4.442067
1822                18.225           3.499255
1824                18.245           2.621152
1826                18.265           1.907844
1828                18.285           1.437574
1830                18.305           1.254265
1832                18.325           1.361454
1834                18.345           1.723556
1836                18.365           2.273860
1838                18.385           2.927337
1840                18.405           3.595491
1842                18.425           4.200221
1844                18.445           4.684100
1846                18.465           5.015391
1848                18.485           5.187365
1850                18.505           5.212769
1852                18.525           5.115262
1854                18.545           4.920198
1856                18.565           4.647102
1858                18.585           4.305614
1860                18.605           3.895713
1862                18.625           3.411943
1864                18.645           2.850330
1866                18.665           2.216011
1868                18.685           1.529386
1870                18.705           0.828925
1872                18.725           0.169526
1874                18.745           -0.383667
1876                18.765           -0.764990
1878                18.785           -0.919679
1880                18.805           -0.814652
1882                18.825           -0.446347
1884                18.845           0.156187
1886                18.865           0.933824
1888                18.885           1.805313
1890                18.905           2.679323
1892                18.925           3.468455
1894                18.945           4.102647
1896                18.965           4.539493
1898                18.985           4.769583
1900                19.005           4.815874
1902                19.025           4.727278
1904                19.045           4.567727
1906                19.065           4.402833
1908                19.085           4.286695
1910                19.105           4.251380
1912                19.125           4.301054
1914                19.145           4.411855
1916                19.165           4.537472
1918                19.185           4.619334
1920                19.205           4.599401
1922                19.225           4.433074
1924                19.245           4.099708
1926                19.265           3.608678
1928                19.285           2.999777
1930                19.305           2.337801
1932                19.325           1.702310
1934                19.345           1.174402
1936                19.365           0.822984
1938                19.385           0.693048
1940                19.405           0.798132
1942                19.425           1.118306
1944                19.445           1.604009
1946                19.465           2.184924
1948                19.485           2.782135
1950                19.505           3.321231
1952                19.525           3.743842
1954                19.545           4.015495
1956                19.565           4.128438
1958                19.585           4.099131
1960                19.605           3.961231
1962                19.625           3.755803
1964                19.645           3.521060
1966                19.665           3.283993
1968                19.685           3.055797
1970                19.705           2.832096
1972                19.725           2.597869
1974                19.745           2.335824
1976                19.765           2.036088
1978                19.785           1.704676
1980                19.805           1.368330
1982                19.825           1.074059
1984                19.845           0.882849
1986                19.865           0.858362
1988                19.885           1.052725
1990                19.905           1.492352
1992                19.925           2.167043
1994                19.945           3.025191
1996                19.965           3.976814
1998                19.985           4.904642
1999                19.995           5.319776