File: dev_example/Ni_10x10x10/pyxrd/o.S_XRD.dat
bin                 q                   S
0                   0.025000            -1050.08
1                   0.075000            -748.303
2                   0.125000            -286.676
3                   0.175000            136.414
4                   0.225000            380.131
5                   0.275000            429.49
6                   0.325000            377.316
7                   0.375000            339.456
8                   0.425000            367.005
9                   0.475000            417.007
10                  0.525000            397.701
11                  0.575000            249.731
12                  0.625000            0.392605
13                  0.675000            -249.465
14                  0.725000            -394.683
15                  0.775000            -397.966
16                  0.825000            -310.368
17                  0.875000            -225.199
18                  0.925000            -201.401
19                  0.975000            -216.246
20                  1.025000            -185.555
21                  1.075000            -38.0953
22                  1.125000            212.551
23                  1.175000            457.158
24                  1.225000            556.77
25                  1.275000            443.302
26                  1.325000            182.383
27                  1.375000            -52.9483
28                  1.425000            -88.6848
29                  1.475000            130.952
30                  1.525000            493.544
31                  1.575000            777.581
32                  1.625000            788.208
33                  1.675000            483.388
34                  1.725000            6.754790
35                  1.775000            -397.422
36                  1.825000            -534.349
37                  1.875000            -377.183
38                  1.925000            -77.0208
39                  1.975000            141.269
40                  2.025000            127.646
41                  2.075000            -98.7649
42                  2.125000            -371.134
43                  2.175000            -495.329
44                  2.225000            -385.574
45                  2.275000            -121.982
46                  2.325000            109.168
47                  2.375000            150.031
48                  2.425000            -14.5787
49                  2.475000            -245.626
50                  2.525000            -352.049
51                  2.575000            -236.281
52                  2.625000            22.4272
53                  2.675000            214.251
54                  2.725000            153.432
55                  2.775000            -160.34
56                  2.825000            -491.397
57                  2.875000            -481.738
58                  2.925000            124.757
59                  2.975000            1282.37
60                  3.025000            2602.37
61                  3.075000            3517.67
62                  3.125000            3575.67
63                  3.175000            2696.63
64                  3.225000            1244.19
65                  3.275000            -142.643
66                  3.325000            -870.129
67                  3.375000            -687.985
68                  3.425000            198.705
69                  3.475000            1261.12
70                  3.525000            1941.3
71                  3.575000            1940.68
72                  3.625000            1345.01
73                  3.675000            529.616
74                  3.725000            -82.9578
75                  3.775000            -261.829
76                  3.825000            -66.8231
77                  3.875000            235.037
78                  3.925000            366.181
79                  3.975000            216.988
80                  4.025000            -102.514
81                  4.075000            -358.645
82                  4.125000            -363.989
83                  4.175000            -105.493
84                  4.225000            251.003
85                  4.275000            476.899
86                  4.325000            435.884
87                  4.375000            173.38
88                  4.425000            -118.037
89                  4.475000            -232.469
90                  4.525000            -93.4844
91                  4.575000            190.132
92                  4.625000            394.454
93                  4.675000            332.446
94                  4.725000            -10.6332
95                  4.775000            -448.6
96                  4.825000            -696.124
97                  4.875000            -541.898
98                  4.925000            12.6201
99                  4.975000            736.107
100                 5.025000            1286.41
101                 5.075000            1397.98
102                 5.125000            1028.44
103                 5.175000            379.247
104                 5.225000            -220.194
105                 5.275000            -495.893
106                 5.325000            -373.67
107                 5.375000            -4.179104
108                 5.425000            340.125
109                 5.475000            430.743
110                 5.525000            213.611
111                 5.575000            -168.164
112                 5.625000            -465.846
113                 5.675000            -471.829
114                 5.725000            -135.132
115                 5.775000            416.772
116                 5.825000            954.47
117                 5.875000            1270.66
118                 5.925000            1279.44
119                 5.975000            1040.16
120                 6.025000            703.088
121                 6.075000            417.881
122                 6.125000            260.644
123                 6.175000            216.094
124                 6.225000            213.993
125                 6.275000            187.754
126                 6.325000            115.923
127                 6.375000            24.9171
128                 6.425000            -40.703
129                 6.475000            -54.6267
130                 6.525000            -26.2223
131                 6.575000            9.902630
132                 6.625000            20.9286
133                 6.675000            -1.639733
134                 6.725000            -39.1904
135                 6.775000            -62.6028
136                 6.825000            -54.2313
137                 6.875000            -18.9036
138                 6.925000            22.9345
139                 6.975000            53.1199
140                 7.025000            70.1298
141                 7.075000            88.6678
142                 7.125000            124.835
143                 7.175000            178.379
144                 7.225000            226.171
145                 7.275000            233.339
146                 7.325000            175.915
147                 7.375000            60.2214
148                 7.425000            -74.4883
149                 7.475000            -173.143
150                 7.525000            -192.18
151                 7.575000            -121.095
152                 7.625000            14.0075
153                 7.675000            165.851
154                 7.725000            290.151
155                 7.775000            364.096
156                 7.825000            389.743
157                 7.875000            383.3
158                 7.925000            359.766
159                 7.975000            323.824
160                 8.025000            271.929
161                 8.075000            201.909
162                 8.125000            121.236
163                 8.175000            46.8089
164                 8.225000            -4.029108
165                 8.275000            -24.543
166                 8.325000            -23.119
167                 8.375000            -17.0894
168                 8.425000            -19.4886
169                 8.475000            -27.9143
170                 8.525000            -23.996
171                 8.575000            14.7524
172                 8.625000            97.3909
173                 8.675000            207.622
174                 8.725000            306.282
175                 8.775000            348.723
176                 8.825000            308.402
177                 8.875000            193.57
178                 8.925000            47.0904
179                 8.975000            -71.5729
180                 9.025000            -113.51
181                 9.075000            -62.9666
182                 9.125000            55.8586
183                 9.175000            190.818
184                 9.225000            286.106
185                 9.275000            306.633
186                 9.325000            251.046
187                 9.375000            148.352
188                 9.425000            41.3772
189                 9.475000            -33.7418
190                 9.525000            -62.0078
191                 9.575000            -51.9666
192                 9.625000            -26.6065
193                 9.675000            -8.787692
194                 9.725000            -9.178885
195                 9.775000            -22.4896
196                 9.825000            -32.9623
197                 9.875000            -25.2557
198                 9.925000            5.601769
199                 9.975000            50.5427
200                 10.025           90.7871
201                 10.075           107.576
202                 10.125           92.0202
203                 10.175           49.9662
204                 10.225           -0.402796
205                 10.275           -36.676
206                 10.325           -41.7584
207                 10.375           -10.2819
208                 10.425           50.5749
209                 10.475           125.225
210                 10.525           195.876
211                 10.575           247.652
212                 10.625           271.024
213                 10.675           262.038
214                 10.725           221.952
215                 10.775           157.393
216                 10.825           80.6723
217                 10.875           8.676984
218                 10.925           -40.9093
219                 10.975           -55.588
220                 11.025           -33.6945
221                 11.075           13.5814
222                 11.125           65.7497
223                 11.175           101.205
224                 11.225           106.37
225                 11.275           81.3074
226                 11.325           39.0355
227                 11.375           -0.919050
228                 11.425           -21.2898
229                 11.475           -13.8335
230                 11.525           18.682
231                 11.575           65.2286
232                 11.625           111.693
233                 11.675           145.666
234                 11.725           159.234
235                 11.775           149.868
236                 11.825           120.379
237                 11.875           78.4979
238                 11.925           35.6404
239                 11.975           4.051345
240                 12.025           -7.615361
241                 12.075           1.419334
242                 12.125           22.5753
243                 12.175           41.0624
244                 12.225           42.9577
245                 12.275           22.7707
246                 12.325           -12.8941
247                 12.375           -48.146
248                 12.425           -65.9124
249                 12.475           -56.8209
250                 12.525           -23.6831
251                 12.575           20.9555
252                 12.625           62.3913
253                 12.675           91.4672
254                 12.725           107.555
255                 12.775           115.402
256                 12.825           118.8
257                 12.875           116.266
258                 12.925           102.355
259                 12.975           73.8148
260                 13.025           35.7807
261                 13.075           2.492467
262                 13.125           -9.450934
263                 13.175           8.206824
264                 13.225           47.8642
265                 13.275           87.7842
266                 13.325           103.531
267                 13.375           82.9653
268                 13.425           35.4451
269                 13.475           -11.4092
270                 13.525           -26.6388
271                 13.575           5.669417
272                 13.625           75.5441
273                 13.675           150.835
274                 13.725           193.923
275                 13.775           182.034
276                 13.825           119.498
277                 13.875           35.0016
278                 13.925           -34.2116
279                 13.975           -61.8433
280                 14.025           -44.6986
281                 14.075           -1.425822
282                 14.125           40.1032
283                 14.175           58.4845
284                 14.225           48.5318
285                 14.275           20.7387
286                 14.325           -7.314238
287                 14.375           -21.1697
288                 14.425           -15.3419
289                 14.475           7.110677
290                 14.525           38.816
291                 14.575           72.0017
292                 14.625           99.7335
293                 14.675           115.353
294                 14.725           112.802
295                 14.775           89.4103
296                 14.825           49.7054
297                 14.875           6.603777
298                 14.925           -22.8118
299                 14.975           -25.9762
300                 15.025           -3.040336
301                 15.075           31.3659
302                 15.125           55.3905
303                 15.175           52.8961
304                 15.225           24.2528
305                 15.275           -12.452
306                 15.325           -31.6275
307                 15.375           -16.2025
308                 15.425           30.5286
309                 15.475           85.262
310                 15.525           117.823
311                 15.575           109.379
312                 15.625           64.3365
313                 15.675           8.156163
314                 15.725           -27.911
315                 15.775           -25.7246
316                 15.825           9.104933
317                 15.875           51.5733
318                 15.925           73.7872
319                 15.975           62.9749
320                 16.025           29.4384
321                 16.075           -0.553501
322                 16.125           -2.175469
323                 16.175           31.5863
324                 16.225           85.1167
325                 16.275           129.79
326                 16.325           141.573
327                 16.375           115.229
328                 16.425           66.301
329                 16.475           20.2486
330                 16.525           -3.588532
331                 16.575           -2.613342
332                 16.625           10.2713
333                 16.675           17.9858
334                 16.725           12.2401
335                 16.775           -0.963170
336                 16.825           -6.825948
337                 16.875           6.042485
338                 16.925           35.6827
339                 16.975           66.4194
340                 17.025           78.6434
341                 17.075           62.1584
342                 17.125           23.883
343                 17.175           -15.6059
344                 17.225           -34.6884
345                 17.275           -24.2599
346                 17.325           6.710746
347                 17.375           37.304
348                 17.425           48.4228
349                 17.475           35.162
350                 17.525           9.703327
351                 17.575           -7.063001
352                 17.625           0.393778
353                 17.675           31.7049
354                 17.725           70.3909
355                 17.775           94.0124
356                 17.825           88.0821
357                 17.875           54.9055
358                 17.925           11.9814
359                 17.975           -18.6774
360                 18.025           -23.3611
361                 18.075           -3.729107
362                 18.125           25.7323
363                 18.175           47.5485
364                 18.225           51.792
365                 18.275           40.8756
366                 18.325           26.3096
367                 18.375           20.3153
368                 18.425           28.0508
369                 18.475           45.1526
370                 18.525           61.4188
371                 18.575           67.5223
372                 18.625           60.1917
373                 18.675           42.9563
374                 18.725           22.8524
375                 18.775           6.016923
376                 18.825           -4.747918
377                 18.875           -9.356553
378                 18.925           -8.163225
379                 18.975           -0.496834
380                 19.025           14.5217
381                 19.075           35.5799
382                 19.125           57.4804
383                 19.175           72.185
384                 19.225           72.6481
385                 19.275           57.248
386                 19.325           31.779
387                 19.375           7.252434
388                 19.425           -5.610119
389                 19.475           -2.075756
390                 19.525           14.1299
391                 19.575           33.1174
392                 19.625           44.5338
393                 19.675           43.2499
394                 19.725           31.6877
395                 19.775           17.5721
396                 19.825           8.700652
397                 19.875           8.070268
398                 19.925           12.339
399                 19.975           14.4463