File: example/NaCl_bench/o.S_XRD.dat
bin                 q                   S
0                   0.005000            7187.19
1                   0.015000            6075.54
2                   0.025000            4162.09
3                   0.035000            1963.66
4                   0.045000            35.5746
5                   0.055000            -1202.32
6                   0.065000            -1584.54
7                   0.075000            -1225.29
8                   0.085000            -447.431
9                   0.095000            352.789
10                  0.105000            851.665
11                  0.115000            901.058
12                  0.125000            555.031
13                  0.135000            18.094
14                  0.145000            -457.057
15                  0.155000            -677.554
16                  0.165000            -581.352
17                  0.175000            -247.024
18                  0.185000            155.115
19                  0.195000            444.614
20                  0.205000            508.332
21                  0.215000            341.887
22                  0.225000            41.0481
23                  0.235000            -248.828
24                  0.245000            -400.192
25                  0.255000            -357.293
26                  0.265000            -154.637
27                  0.275000            105.273
28                  0.285000            302.19
29                  0.295000            352.443
30                  0.305000            243.306
31                  0.315000            33.7513
32                  0.325000            -176.491
33                  0.335000            -293.874
34                  0.345000            -272.228
35                  0.355000            -130.368
36                  0.365000            60.2825
37                  0.375000            210.754
38                  0.385000            255.39
39                  0.395000            179.941
40                  0.405000            25.0808
41                  0.415000            -134.921
42                  0.425000            -227.487
43                  0.435000            -214.426
44                  0.445000            -107.469
45                  0.455000            39.5147
46                  0.465000            157.004
47                  0.475000            192.2
48                  0.485000            132.381
49                  0.495000            9.073110
50                  0.505000            -118.075
51                  0.515000            -189.568
52                  0.525000            -173.227
53                  0.535000            -77.9621
54                  0.545000            51.5998
55                  0.555000            156.497
56                  0.565000            190.604
57                  0.575000            141.087
58                  0.585000            33.1339
59                  0.595000            -82.6517
60                  0.605000            -153.924
61                  0.615000            -150.278
62                  0.625000            -76.2522
63                  0.635000            31.8458
64                  0.645000            123.354
65                  0.655000            156.581
66                  0.665000            117.35
67                  0.675000            24.5702
68                  0.685000            -79.2557
69                  0.695000            -147.822
70                  0.705000            -151.878
71                  0.715000            -91.743
72                  0.725000            3.852450
73                  0.735000            91.6253
74                  0.745000            133.623
75                  0.755000            113.994
76                  0.765000            45.2182
77                  0.775000            -38.6468
78                  0.785000            -98.1865
79                  0.795000            -106.691
80                  0.805000            -61.8317
81                  0.815000            14.0944
82                  0.825000            85.0969
83                  0.835000            118.281
84                  0.845000            98.725
85                  0.855000            35.7731
86                  0.865000            -41.8276
87                  0.875000            -99.4151
88                  0.885000            -112.168
89                  0.895000            -75.9552
90                  0.905000            -8.535496
91                  0.915000            59.1247
92                  0.925000            97.196
93                  0.935000            90.3384
94                  0.945000            44.0685
95                  0.955000            -18.5141
96                  0.965000            -67.8572
97                  0.975000            -81.6626
98                  0.985000            -54.8752
99                  0.995000            -1.526347
100                 1.005000            52.187
101                 1.015000            80.2208
102                 1.025000            68.6767
103                 1.035000            22.0371
104                 1.045000            -39.0578
105                 1.055000            -87.3072
106                 1.065000            -101.094
107                 1.075000            -74.0699
108                 1.085000            -17.7446
109                 1.095000            43.908
110                 1.105000            85.2369
111                 1.115000            90.1485
112                 1.125000            58.79
113                 1.135000            6.848637
114                 1.145000            -41.9848
115                 1.155000            -66.8103
116                 1.165000            -58.6484
117                 1.175000            -23.8823
118                 1.185000            19.3339
119                 1.195000            49.846
120                 1.205000            53.3198
121                 1.215000            28.6291
122                 1.225000            -11.9948
123                 1.235000            -48.9561
124                 1.245000            -64.5483
125                 1.255000            -51.1705
126                 1.265000            -14.7642
127                 1.275000            28.0292
128                 1.285000            57.6049
129                 1.295000            60.4363
130                 1.305000            35.2794
131                 1.315000            -6.268296
132                 1.325000            -45.075
133                 1.335000            -63.2099
134                 1.345000            -52.1285
135                 1.355000            -16.6018
136                 1.365000            27.382
137                 1.375000            59.7946
138                 1.385000            65.5902
139                 1.395000            41.5207
140                 1.405000            -2.316189
141                 1.415000            -46.8956
142                 1.425000            -72.6833
143                 1.435000            -68.3028
144                 1.445000            -35.5936
145                 1.455000            11.1893
146                 1.465000            51.6782
147                 1.475000            68.3942
148                 1.485000            54.4475
149                 1.495000            16.5184
150                 1.505000            -28.1983
151                 1.515000            -59.7173
152                 1.525000            -64.2028
153                 1.535000            -40.1308
154                 1.545000            1.088073
155                 1.555000            40.3112
156                 1.565000            59.3682
157                 1.575000            49.3537
158                 1.585000            14.7566
159                 1.595000            -28.4827
160                 1.605000            -60.1663
161                 1.615000            -65.0769
162                 1.625000            -40.077
163                 1.635000            4.210252
164                 1.645000            48.0116
165                 1.655000            71.326
166                 1.665000            63.1659
167                 1.675000            26.8764
168                 1.685000            -21.0239
169                 1.695000            -58.1433
170                 1.705000            -66.4833
171                 1.715000            -41.0276
172                 1.725000            7.390099
173                 1.735000            56.498
174                 1.745000            82.5403
175                 1.755000            71.3948
176                 1.765000            25.7341
177                 1.775000            -35.3085
178                 1.785000            -84.2136
179                 1.795000            -97.5571
180                 1.805000            -67.3291
181                 1.815000            -5.717913
182                 1.825000            59.3152
183                 1.835000            96.253
184                 1.845000            84.9037
185                 1.855000            27.2132
186                 1.865000            -51.3524
187                 1.875000            -111.294
188                 1.885000            -116.011
189                 1.895000            -49.0988
190                 1.905000            75.817
191                 1.915000            217.768
192                 1.925000            323.514
193                 1.935000            349.306
194                 1.945000            280.269
195                 1.955000            138.72
196                 1.965000            -22.9949
197                 1.975000            -143.027
198                 1.985000            -175.817
199                 1.995000            -112.189
200                 2.005000            15.376
201                 2.015000            145.468
202                 2.025000            213.928
203                 2.035000            182.692
204                 2.045000            58.6306
205                 2.055000            -106.691
206                 2.065000            -237.59
207                 2.075000            -267.496
208                 2.085000            -170.949
209                 2.095000            20.1081
210                 2.105000            224.527
211                 2.115000            343.45
212                 2.125000            303.697
213                 2.135000            95.4586
214                 2.145000            -212.468
215                 2.155000            -488.765
216                 2.165000            -583.632
217                 2.175000            -385.743
218                 2.185000            129.291
219                 2.195000            878.544
220                 2.205000            1689.31
221                 2.215000            2350.38
222                 2.225000            2679.78
223                 2.235000            2585.01
224                 2.245000            2094.03
225                 2.255000            1345.52
226                 2.265000            542.32
227                 2.275000            -115.256
228                 2.285000            -491.913
229                 2.295000            -554.094
230                 2.305000            -369.326
231                 2.315000            -70.9457
232                 2.325000            196.448
233                 2.335000            329.364
234                 2.345000            296.512
235                 2.355000            139.118
236                 2.365000            -56.4686
237                 2.375000            -200.283
238                 2.385000            -236.484
239                 2.395000            -162.554
240                 2.405000            -24.0808
241                 2.415000            110.219
242                 2.425000            180.783
243                 2.435000            162.364
244                 2.445000            71.8941
245                 2.455000            -42.8543
246                 2.465000            -127.259
247                 2.475000            -144.933
248                 2.485000            -92.7048
249                 2.495000            0.439700
250                 2.505000            88.8387
251                 2.515000            132.124
252                 2.525000            113.308
253                 2.535000            45.0201
254                 2.545000            -38.2416
255                 2.555000            -97.4672
256                 2.565000            -107.559
257                 2.575000            -68.2313
258                 2.585000            -2.684636
259                 2.595000            54.7309
260                 2.605000            75.5732
261                 2.615000            50.8192
262                 2.625000            -5.456913
263                 2.635000            -63.6729
264                 2.645000            -93.6349
265                 2.655000            -79.4091
266                 2.665000            -27.0132
267                 2.675000            38.6603
268                 2.685000            86.0628
269                 2.695000            92.3639
270                 2.705000            54.5421
271                 2.715000            -9.132065
272                 2.725000            -67.9049
273                 2.735000            -93.3767
274                 2.745000            -73.214
275                 2.755000            -17.1236
276                 2.765000            47.8129
277                 2.775000            90.2329
278                 2.785000            89.7242
279                 2.795000            46.8252
280                 2.805000            -17.114
281                 2.815000            -70.263
282                 2.825000            -85.9394
283                 2.835000            -55.9729
284                 2.845000            4.805383
285                 2.855000            65.3859
286                 2.865000            93.6879
287                 2.875000            72.7693
288                 2.885000            10.1609
289                 2.895000            -64.597
290                 2.905000            -113.572
291                 2.915000            -109.063
292                 2.925000            -48.3189
293                 2.935000            43.1622
294                 2.945000            122.135
295                 2.955000            147.731
296                 2.965000            102.065
297                 2.975000            1.286988
298                 2.985000            -109.11
299                 2.995000            -173.845
300                 3.005000            -154.217
301                 3.015000            -49.2862
302                 3.025000            98.7994
303                 3.035000            219.584
304                 3.045000            244.583
305                 3.055000            140.919
306                 3.065000            -66.5334
307                 3.075000            -295.681
308                 3.085000            -432.789
309                 3.095000            -374.926
310                 3.105000            -73.3473
311                 3.115000            439.752
312                 3.125000            1053.1
313                 3.135000            1608.11
314                 3.145000            1950.02
315                 3.155000            1980.07
316                 3.165000            1689.47
317                 3.175000            1162.31
318                 3.185000            546.625
319                 3.195000            4.280250
320                 3.205000            -341.63
321                 3.215000            -442.942
322                 3.225000            -334.067
323                 3.235000            -110.242
324                 3.245000            113.438
325                 3.255000            245.499
326                 3.265000            247.687
327                 3.275000            140.91
328                 3.285000            -12.2042
329                 3.295000            -138.822
330                 3.305000            -187.419
331                 3.315000            -146.648
332                 3.325000            -45.2461
333                 3.335000            64.9391
334                 3.345000            133.894
335                 3.355000            134.99
336                 3.365000            74.2505
337                 3.375000            -15.4787
338                 3.385000            -91.5294
339                 3.395000            -121.171
340                 3.405000            -95.2278
341                 3.415000            -30.092
342                 3.425000            41.7842
343                 3.435000            87.7494
344                 3.445000            89.5953
345                 3.455000            50.5364
346                 3.465000            -7.999291
347                 3.475000            -57.539
348                 3.485000            -76.0508
349                 3.495000            -57.472
350                 3.505000            -13.2518
351                 3.515000            34.209
352                 3.525000            62.641
353                 3.535000            60.1222
354                 3.545000            29.8088
355                 3.555000            -12.6017
356                 3.565000            -46.9908
357                 3.575000            -58.3819
358                 3.585000            -43.4249
359                 3.595000            -11.0197
360                 3.605000            22.7828
361                 3.615000            42.8113
362                 3.625000            41.7689
363                 3.635000            23.0026
364                 3.645000            -1.923019
365                 3.655000            -19.2882
366                 3.665000            -19.7598
367                 3.675000            -2.287766
368                 3.685000            26.2226
369                 3.695000            54.8467
370                 3.705000            73.853
371                 3.715000            78.4676
372                 3.725000            69.5144
373                 3.735000            51.1265
374                 3.745000            27.3823
375                 3.755000            0.248163
376                 3.765000            -29.6781
377                 3.775000            -59.9768
378                 3.785000            -82.8962
379                 3.795000            -84.3319
380                 3.805000            -47.1702
381                 3.815000            41.3495
382                 3.825000            181.05
383                 3.835000            353.221
384                 3.845000            521.677
385                 3.855000            641.671
386                 3.865000            674.369
387                 3.875000            601.705
388                 3.885000            435.474
389                 3.895000            216.253
390                 3.905000            1.521231
391                 3.915000            -153.203
392                 3.925000            -213.287
393                 3.935000            -176.636
394                 3.945000            -73.3667
395                 3.955000            46.5095
396                 3.965000            132.585
397                 3.975000            153.014
398                 3.985000            105.442
399                 3.995000            15.7473
400                 4.005000            -74.4932
401                 4.015000            -126.295
402                 4.025000            -119.538
403                 4.035000            -60.4943
404                 4.045000            22.2206
405                 4.055000            91.1032
406                 4.065000            116.504
407                 4.075000            89.2927
408                 4.085000            24.0745
409                 4.095000            -48.1531
410                 4.105000            -94.3547
411                 4.115000            -94.2916
412                 4.125000            -49.25
413                 4.135000            19.0657
414                 4.145000            78.7614
415                 4.155000            102.348
416                 4.165000            79.0931
417                 4.175000            19.6397
418                 4.185000            -49.0535
419                 4.195000            -96.0417
420                 4.205000            -100.368
421                 4.215000            -60.3996
422                 4.225000            5.606037
423                 4.235000            67.8613
424                 4.245000            98.5077
425                 4.255000            84.1053
426                 4.265000            31.5787
427                 4.275000            -34.9863
428                 4.285000            -85.2057
429                 4.295000            -96.0422
430                 4.305000            -62.1591
431                 4.315000            1.587296
432                 4.325000            66.5907
433                 4.335000            103.022
434                 4.345000            92.9664
435                 4.355000            38.493
436                 4.365000            -38.7572
437                 4.375000            -106.198
438                 4.385000            -133.392
439                 4.395000            -104.103
440                 4.405000            -22.4011
441                 4.415000            89.3726
442                 4.425000            199.54
443                 4.435000            278.892
444                 4.445000            310.471
445                 4.455000            293.673
446                 4.465000            241.714
447                 4.475000            174.363
448                 4.485000            109.618
449                 4.495000            57.9826
450                 4.505000            21.3209
451                 4.515000            -4.095319
452                 4.525000            -22.6861
453                 4.535000            -35.7517
454                 4.545000            -40.7666
455                 4.555000            -33.8975
456                 4.565000            -14.0108
457                 4.575000            14.4253
458                 4.585000            41.5601
459                 4.595000            55.8272
460                 4.605000            49.4313
461                 4.615000            22.8608
462                 4.625000            -14.1328
463                 4.635000            -46.0397
464                 4.645000            -58.318
465                 4.655000            -44.332
466                 4.665000            -9.130366
467                 4.675000            32.03
468                 4.685000            60.1172
469                 4.695000            61.0021
470                 4.705000            32.4115
471                 4.715000            -14.2552
472                 4.725000            -58.4339
473                 4.735000            -79.4973
474                 4.745000            -66.443
475                 4.755000            -23.6398
476                 4.765000            30.3225
477                 4.775000            70.5788
478                 4.785000            77.4386
479                 4.795000            46.19
480                 4.805000            -9.470930
481                 4.815000            -62.4813
482                 4.825000            -84.241
483                 4.835000            -58.2845
484                 4.845000            10.3875
485                 4.855000            95.029
486                 4.865000            156.935
487                 4.875000            161.896
488                 4.885000            96.6819
489                 4.895000            -21.6453
490                 4.905000            -148.305
491                 4.915000            -225.309
492                 4.925000            -202.993
493                 4.935000            -60.4435
494                 4.945000            183.348
495                 4.955000            472.509
496                 4.965000            731.045
497                 4.975000            887.581
498                 4.985000            899.133
499                 4.995000            765.22
500                 5.005000            527.248
501                 5.015000            253.608
502                 5.025000            16.2445
503                 5.035000            -132.597
504                 5.045000            -175.119
505                 5.055000            -129.509
506                 5.065000            -38.7146
507                 5.075000            48.2917
508                 5.085000            95.1104
509                 5.095000            89.3594
510                 5.105000            43.3508
511                 5.115000            -15.076
512                 5.125000            -56.7978
513                 5.135000            -64.3509
514                 5.145000            -38.31
515                 5.155000            4.949044
516                 5.165000            42.3286
517                 5.175000            55.3535
518                 5.185000            38.5519
519                 5.195000            1.292098
520                 5.205000            -37.3828
521                 5.215000            -58.2213
522                 5.225000            -51.0068
523                 5.235000            -19.3131
524                 5.245000            21.3322
525                 5.255000            50.9296
526                 5.265000            54.6211
527                 5.275000            29.9633
528                 5.285000            -11.5533
529                 5.295000            -49.5545
530                 5.305000            -64.2384
531                 5.315000            -46.0161
532                 5.325000            -0.899494
533                 5.335000            51.0611
534                 5.345000            84.013
535                 5.355000            77.9793
536                 5.365000            29.0766
537                 5.375000            -46.277
538                 5.385000            -115.431
539                 5.395000            -140.813
540                 5.405000            -94.4152
541                 5.415000            30.0562
542                 5.425000            212.262
543                 5.435000            409.787
544                 5.445000            570.912
545                 5.455000            651.222
546                 5.465000            628.179
547                 5.475000            508.481
548                 5.485000            325.653
549                 5.495000            128.831
550                 5.505000            -33.1652
551                 5.515000            -126.849
552                 5.525000            -143.07
553                 5.535000            -97.2548
554                 5.545000            -21.4232
555                 5.555000            48.6321
556                 5.565000            86.0776
557                 5.575000            81.1694
558                 5.585000            42.2888
559                 5.595000            -9.802833
560                 5.605000            -51.6803
561                 5.615000            -66.8813
562                 5.625000            -51.7641
563                 5.635000            -15.6777
564                 5.645000            24.098
565                 5.655000            50.1732
566                 5.665000            52.2548
567                 5.675000            30.8776
568                 5.685000            -3.594756
569                 5.695000            -35.9395
570                 5.705000            -52.6896
571                 5.715000            -47.552
572                 5.725000            -23.4717
573                 5.735000            9.282854
574                 5.745000            37.9332
575                 5.755000            52.6773
576                 5.765000            50.4758
577                 5.775000            35.6392
578                 5.785000            17.1835
579                 5.795000            4.330162
580                 5.805000            2.263291
581                 5.815000            10.0373
582                 5.825000            21.4764
583                 5.835000            28.5192
584                 5.845000            25.364
585                 5.855000            11.4453
586                 5.865000            -8.148657
587                 5.875000            -25.0027
588                 5.885000            -31.3495
589                 5.895000            -23.8312
590                 5.905000            -5.273285
591                 5.915000            16.3927
592                 5.925000            31.6115
593                 5.935000            33.5235
594                 5.945000            21.1433
595                 5.955000            -0.086743
596                 5.965000            -20.6723
597                 5.975000            -31.3344
598                 5.985000            -27.2447
599                 5.995000            -10.2857